participant_id,prolific_id,timestamp_iso,trial_index,block,trial_id,audio_file,audio_url,target_image,distractor_image,target_side,left_image,right_image,choice,choice_image,is_correct,reaction_time_ms,headphone_type,timestamp_iso,recognize,understand,meaning_match,msa_dialect,natural,dialect_best,dialect_second,understand_other,msa_instruction,msa_vowels,msa_reading,msa_listening,other_languages,percent_english,percent_arabic,percent_other,language_switching,family_preference,age,gender,country_of_residence,attention_audio,attention_response,attention_index,final_feedback,completion_code
65f0770588878297865a0cc4,65f0770588878297865a0cc4,2026-01-28T04:41:24.850Z,,AttentionCheck,,,,,,,,,,,,,Wireless hoco buds,2026-01-28T04:41:24.850Z,,,,,,,,,,,,,,,,,,,,,,https://benebular.github.io/pharylary/experiment/audio_check/greatness_gs_b.wav,Greatness,1,,
65f0770588878297865a0cc4,65f0770588878297865a0cc4,2026-01-28T04:41:52.380Z,1,Trials,166,166_creaky.wav,https://benebular.github.io/pharylary/data/audio/166_creaky.wav,22.png,117.png,left,22.png,117.png,left,22.png,yes,107,Wireless hoco buds,2026-01-28T04:41:52.380Z,,,,,,,,,,,,,,,,,,,,,,,,,,
65f0770588878297865a0cc4,65f0770588878297865a0cc4,2026-01-28T04:41:57.297Z,2,Trials,144,144_non-creaky.wav,https://benebular.github.io/pharylary/data/audio/144_non-creaky.wav,182.png,87.png,right,87.png,182.png,right,182.png,yes,855,Wireless hoco buds,2026-01-28T04:41:57.297Z,,,,,,,,,,,,,,,,,,,,,,,,,,
65f0770588878297865a0cc4,65f0770588878297865a0cc4,2026-01-28T04:42:02.780Z,3,Trials,180,180_creaky.wav,https://benebular.github.io/pharylary/data/audio/180_creaky.wav,36.png,131.png,left,36.png,131.png,left,36.png,yes,468,Wireless hoco buds,2026-01-28T04:42:02.780Z,,,,,,,,,,,,,,,,,,,,,,,,,,
65f0770588878297865a0cc4,65f0770588878297865a0cc4,2026-01-28T04:42:07.696Z,4,Trials,93,93_non-creaky.wav,https://benebular.github.io/pharylary/data/audio/93_non-creaky.wav,104.png,9.png,left,104.png,9.png,left,104.png,yes,815,Wireless hoco buds,2026-01-28T04:42:07.696Z,,,,,,,,,,,,,,,,,,,,,,,,,,
65f0770588878297865a0cc4,65f0770588878297865a0cc4,2026-01-28T04:42:13.516Z,5,Trials,200,200_creaky.wav,https://benebular.github.io/pharylary/data/audio/200_creaky.wav,61.png,156.png,left,61.png,156.png,left,61.png,yes,1602,Wireless hoco buds,2026-01-28T04:42:13.516Z,,,,,,,,,,,,,,,,,,,,,,,,,,
65f0770588878297865a0cc4,65f0770588878297865a0cc4,2026-01-28T04:42:17.710Z,6,Trials,106,106_non-creaky.wav,https://benebular.github.io/pharylary/data/audio/106_non-creaky.wav,125.png,30.png,left,125.png,30.png,left,125.png,yes,649,Wireless hoco buds,2026-01-28T04:42:17.710Z,,,,,,,,,,,,,,,,,,,,,,,,,,
65f0770588878297865a0cc4,65f0770588878297865a0cc4,2026-01-28T04:42:24.892Z,7,Trials,8,8_non-creaky.wav,https://benebular.github.io/pharylary/data/audio/8_non-creaky.wav,6.png,101.png,left,6.png,101.png,left,6.png,yes,3561,Wireless hoco buds,2026-01-28T04:42:24.892Z,,,,,,,,,,,,,,,,,,,,,,,,,,
65f0770588878297865a0cc4,65f0770588878297865a0cc4,2026-01-28T04:42:34.340Z,8,Trials,193,193_creaky.wav,https://benebular.github.io/pharylary/data/audio/193_creaky.wav,52.png,147.png,right,147.png,52.png,right,52.png,yes,168,Wireless hoco buds,2026-01-28T04:42:34.340Z,,,,,,,,,,,,,,,,,,,,,,,,,,
65f0770588878297865a0cc4,65f0770588878297865a0cc4,2026-01-28T04:42:38.358Z,9,Trials,152,152_creaky.wav,https://benebular.github.io/pharylary/data/audio/152_creaky.wav,6.png,101.png,left,6.png,101.png,left,6.png,yes,466,Wireless hoco buds,2026-01-28T04:42:38.358Z,,,,,,,,,,,,,,,,,,,,,,,,,,
65f0770588878297865a0cc4,65f0770588878297865a0cc4,2026-01-28T04:42:42.812Z,10,Trials,157,157_creaky.wav,https://benebular.github.io/pharylary/data/audio/157_creaky.wav,12.png,107.png,right,107.png,12.png,right,12.png,yes,666,Wireless hoco buds,2026-01-28T04:42:42.812Z,,,,,,,,,,,,,,,,,,,,,,,,,,
65f0770588878297865a0cc4,65f0770588878297865a0cc4,2026-01-28T04:42:46.787Z,11,Trials,158,158_creaky.wav,https://benebular.github.io/pharylary/data/audio/158_creaky.wav,14.png,109.png,right,109.png,14.png,right,14.png,yes,517,Wireless hoco buds,2026-01-28T04:42:46.787Z,,,,,,,,,,,,,,,,,,,,,,,,,,
68d4239be163cb15b16606a6,68d4239be163cb15b16606a6,2026-01-28T04:42:47.807Z,,AttentionCheck,,,,,,,,,,,,,Wired Headset,2026-01-28T04:42:47.807Z,,,,,,,,,,,,,,,,,,,,,,https://benebular.github.io/pharylary/experiment/audio_check/curly_b.wav,Curly,1,,
65f0770588878297865a0cc4,65f0770588878297865a0cc4,2026-01-28T04:42:50.725Z,12,Trials,68,68_non-creaky.wav,https://benebular.github.io/pharylary/data/audio/68_non-creaky.wav,75.png,165.png,left,75.png,165.png,left,75.png,yes,715,Wireless hoco buds,2026-01-28T04:42:50.725Z,,,,,,,,,,,,,,,,,,,,,,,,,,
65f0770588878297865a0cc4,65f0770588878297865a0cc4,2026-01-28T04:42:54.346Z,13,Trials,199,199_creaky.wav,https://benebular.github.io/pharylary/data/audio/199_creaky.wav,60.png,155.png,left,60.png,155.png,left,60.png,yes,506,Wireless hoco buds,2026-01-28T04:42:54.346Z,,,,,,,,,,,,,,,,,,,,,,,,,,
65f0770588878297865a0cc4,65f0770588878297865a0cc4,2026-01-28T04:42:58.465Z,14,Trials,206,206_creaky.wav,https://benebular.github.io/pharylary/data/audio/206_creaky.wav,68.png,163.png,left,68.png,163.png,left,68.png,yes,449,Wireless hoco buds,2026-01-28T04:42:58.465Z,,,,,,,,,,,,,,,,,,,,,,,,,,
65f0770588878297865a0cc4,65f0770588878297865a0cc4,2026-01-28T04:43:04.415Z,15,Trials,255,255_creaky.wav,https://benebular.github.io/pharylary/data/audio/255_creaky.wav,137.png,42.png,right,42.png,137.png,right,137.png,yes,2025,Wireless hoco buds,2026-01-28T04:43:04.415Z,,,,,,,,,,,,,,,,,,,,,,,,,,
65f0770588878297865a0cc4,65f0770588878297865a0cc4,2026-01-28T04:43:08.826Z,16,Trials,160,160_creaky.wav,https://benebular.github.io/pharylary/data/audio/160_creaky.wav,16.png,112.png,right,112.png,16.png,right,16.png,yes,381,Wireless hoco buds,2026-01-28T04:43:08.826Z,,,,,,,,,,,,,,,,,,,,,,,,,,
65f0770588878297865a0cc4,65f0770588878297865a0cc4,2026-01-28T04:43:14.154Z,17,Trials,217,217_creaky.wav,https://benebular.github.io/pharylary/data/audio/217_creaky.wav,81.png,176.png,left,81.png,176.png,left,81.png,yes,872,Wireless hoco buds,2026-01-28T04:43:14.154Z,,,,,,,,,,,,,,,,,,,,,,,,,,
65f0770588878297865a0cc4,65f0770588878297865a0cc4,2026-01-28T04:43:17.997Z,18,Trials,74,74_non-creaky.wav,https://benebular.github.io/pharylary/data/audio/74_non-creaky.wav,82.png,177.png,left,82.png,177.png,left,82.png,yes,587,Wireless hoco buds,2026-01-28T04:43:17.997Z,,,,,,,,,,,,,,,,,,,,,,,,,,
65f0770588878297865a0cc4,65f0770588878297865a0cc4,2026-01-28T04:43:23.443Z,19,Trials,48,48_non-creaky.wav,https://benebular.github.io/pharylary/data/audio/48_non-creaky.wav,51.png,146.png,right,146.png,51.png,right,51.png,yes,492,Wireless hoco buds,2026-01-28T04:43:23.443Z,,,,,,,,,,,,,,,,,,,,,,,,,,
65f0770588878297865a0cc4,65f0770588878297865a0cc4,2026-01-28T04:43:28.252Z,20,Trials,215,215_creaky.wav,https://benebular.github.io/pharylary/data/audio/215_creaky.wav,74.png,169.png,right,169.png,74.png,right,74.png,yes,460,Wireless hoco buds,2026-01-28T04:43:28.252Z,,,,,,,,,,,,,,,,,,,,,,,,,,
68d4239be163cb15b16606a6,68d4239be163cb15b16606a6,2026-01-28T04:43:36.174Z,1,Trials,55,55_non-creaky.wav,https://benebular.github.io/pharylary/data/audio/55_non-creaky.wav,60.png,155.png,left,60.png,155.png,left,60.png,yes,54,Wired Headset,2026-01-28T04:43:36.174Z,,,,,,,,,,,,,,,,,,,,,,,,,,
68d4239be163cb15b16606a6,68d4239be163cb15b16606a6,2026-01-28T04:43:40.958Z,2,Trials,38,38_non-creaky.wav,https://benebular.github.io/pharylary/data/audio/38_non-creaky.wav,40.png,135.png,right,135.png,40.png,right,40.png,yes,147,Wired Headset,2026-01-28T04:43:40.958Z,,,,,,,,,,,,,,,,,,,,,,,,,,
65f0770588878297865a0cc4,65f0770588878297865a0cc4,2026-01-28T04:43:43.316Z,21,Trials,12,12_non-creaky.wav,https://benebular.github.io/pharylary/data/audio/12_non-creaky.wav,12.png,107.png,right,107.png,12.png,right,12.png,yes,2594,Wireless hoco buds,2026-01-28T04:43:43.316Z,,,,,,,,,,,,,,,,,,,,,,,,,,
68d4239be163cb15b16606a6,68d4239be163cb15b16606a6,2026-01-28T04:43:45.434Z,3,Trials,157,157_creaky.wav,https://benebular.github.io/pharylary/data/audio/157_creaky.wav,12.png,107.png,left,12.png,107.png,left,12.png,yes,353,Wired Headset,2026-01-28T04:43:45.434Z,,,,,,,,,,,,,,,,,,,,,,,,,,
65f0770588878297865a0cc4,65f0770588878297865a0cc4,2026-01-28T04:43:48.634Z,22,Trials,258,258_creaky.wav,https://benebular.github.io/pharylary/data/audio/258_creaky.wav,142.png,47.png,left,142.png,47.png,right,47.png,no,395,Wireless hoco buds,2026-01-28T04:43:48.634Z,,,,,,,,,,,,,,,,,,,,,,,,,,
68d4239be163cb15b16606a6,68d4239be163cb15b16606a6,2026-01-28T04:43:51.183Z,4,Trials,242,242_creaky.wav,https://benebular.github.io/pharylary/data/audio/242_creaky.wav,113.png,18.png,left,113.png,18.png,left,113.png,yes,1592,Wired Headset,2026-01-28T04:43:51.183Z,,,,,,,,,,,,,,,,,,,,,,,,,,
65f0770588878297865a0cc4,65f0770588878297865a0cc4,2026-01-28T04:43:53.003Z,23,Trials,38,38_non-creaky.wav,https://benebular.github.io/pharylary/data/audio/38_non-creaky.wav,40.png,135.png,right,135.png,40.png,right,40.png,yes,422,Wireless hoco buds,2026-01-28T04:43:53.003Z,,,,,,,,,,,,,,,,,,,,,,,,,,
65f0770588878297865a0cc4,65f0770588878297865a0cc4,2026-01-28T04:43:57.365Z,24,Trials,194,194_creaky.wav,https://benebular.github.io/pharylary/data/audio/194_creaky.wav,53.png,148.png,left,53.png,148.png,left,53.png,yes,484,Wireless hoco buds,2026-01-28T04:43:57.365Z,,,,,,,,,,,,,,,,,,,,,,,,,,
65f0770588878297865a0cc4,65f0770588878297865a0cc4,2026-01-28T04:44:01.218Z,25,Trials,25,25_non-creaky.wav,https://benebular.github.io/pharylary/data/audio/25_non-creaky.wav,25.png,120.png,right,120.png,25.png,right,25.png,yes,519,Wireless hoco buds,2026-01-28T04:44:01.218Z,,,,,,,,,,,,,,,,,,,,,,,,,,
68d4239be163cb15b16606a6,68d4239be163cb15b16606a6,2026-01-28T04:44:00.960Z,5,Trials,213,213_creaky.wav,https://benebular.github.io/pharylary/data/audio/213_creaky.wav,72.png,167.png,right,167.png,72.png,right,72.png,yes,930,Wired Headset,2026-01-28T04:44:00.960Z,,,,,,,,,,,,,,,,,,,,,,,,,,
65f0770588878297865a0cc4,65f0770588878297865a0cc4,2026-01-28T04:44:05.004Z,26,Trials,156,156_creaky.wav,https://benebular.github.io/pharylary/data/audio/156_creaky.wav,12.png,107.png,left,12.png,107.png,left,12.png,yes,402,Wireless hoco buds,2026-01-28T04:44:05.004Z,,,,,,,,,,,,,,,,,,,,,,,,,,
68d4239be163cb15b16606a6,68d4239be163cb15b16606a6,2026-01-28T04:44:05.853Z,6,Trials,259,259_creaky.wav,https://benebular.github.io/pharylary/data/audio/259_creaky.wav,143.png,48.png,right,48.png,143.png,right,143.png,yes,383,Wired Headset,2026-01-28T04:44:05.853Z,,,,,,,,,,,,,,,,,,,,,,,,,,
65f0770588878297865a0cc4,65f0770588878297865a0cc4,2026-01-28T04:44:08.792Z,27,Trials,49,49_non-creaky.wav,https://benebular.github.io/pharylary/data/audio/49_non-creaky.wav,52.png,147.png,left,52.png,147.png,left,52.png,yes,571,Wireless hoco buds,2026-01-28T04:44:08.792Z,,,,,,,,,,,,,,,,,,,,,,,,,,
68d4239be163cb15b16606a6,68d4239be163cb15b16606a6,2026-01-28T04:44:10.049Z,7,Trials,263,263_creaky.wav,https://benebular.github.io/pharylary/data/audio/263_creaky.wav,148.png,53.png,right,53.png,148.png,right,148.png,yes,279,Wired Headset,2026-01-28T04:44:10.049Z,,,,,,,,,,,,,,,,,,,,,,,,,,
65f0770588878297865a0cc4,65f0770588878297865a0cc4,2026-01-28T04:44:12.811Z,28,Trials,4,4_non-creaky.wav,https://benebular.github.io/pharylary/data/audio/4_non-creaky.wav,4.png,99.png,left,4.png,99.png,left,4.png,yes,449,Wireless hoco buds,2026-01-28T04:44:12.811Z,,,,,,,,,,,,,,,,,,,,,,,,,,
68d4239be163cb15b16606a6,68d4239be163cb15b16606a6,2026-01-28T04:44:14.364Z,8,Trials,80,80_non-creaky.wav,https://benebular.github.io/pharylary/data/audio/80_non-creaky.wav,80.png,175.png,left,80.png,175.png,left,80.png,yes,414,Wired Headset,2026-01-28T04:44:14.364Z,,,,,,,,,,,,,,,,,,,,,,,,,,
68d4239be163cb15b16606a6,68d4239be163cb15b16606a6,2026-01-28T04:44:18.084Z,9,Trials,133,133_non-creaky.wav,https://benebular.github.io/pharylary/data/audio/133_non-creaky.wav,165.png,70.png,left,165.png,70.png,left,165.png,yes,144,Wired Headset,2026-01-28T04:44:18.084Z,,,,,,,,,,,,,,,,,,,,,,,,,,
65f0770588878297865a0cc4,65f0770588878297865a0cc4,2026-01-28T04:44:22.414Z,,AttentionCheck,,,,,,,,,,,,,Wireless hoco buds,2026-01-28T04:44:22.414Z,,,,,,,,,,,,,,,,,,,,,,https://benebular.github.io/pharylary/experiment/audio_check/den_b.wav,Then,2,,
68d4239be163cb15b16606a6,68d4239be163cb15b16606a6,2026-01-28T04:44:24.841Z,10,Trials,23,23_non-creaky.wav,https://benebular.github.io/pharylary/data/audio/23_non-creaky.wav,23.png,118.png,right,118.png,23.png,right,23.png,yes,2831,Wired Headset,2026-01-28T04:44:24.841Z,,,,,,,,,,,,,,,,,,,,,,,,,,
65f0770588878297865a0cc4,65f0770588878297865a0cc4,2026-01-28T04:44:28.358Z,29,Trials,238,238_creaky.wav,https://benebular.github.io/pharylary/data/audio/238_creaky.wav,104.png,10.png,right,10.png,104.png,right,104.png,yes,884,Wireless hoco buds,2026-01-28T04:44:28.358Z,,,,,,,,,,,,,,,,,,,,,,,,,,
68d4239be163cb15b16606a6,68d4239be163cb15b16606a6,2026-01-28T04:44:29.912Z,11,Trials,73,73_non-creaky.wav,https://benebular.github.io/pharylary/data/audio/73_non-creaky.wav,81.png,176.png,left,81.png,176.png,left,81.png,yes,641,Wired Headset,2026-01-28T04:44:29.912Z,,,,,,,,,,,,,,,,,,,,,,,,,,
65f0770588878297865a0cc4,65f0770588878297865a0cc4,2026-01-28T04:44:32.427Z,30,Trials,167,167_creaky.wav,https://benebular.github.io/pharylary/data/audio/167_creaky.wav,23.png,118.png,right,118.png,23.png,right,23.png,yes,517,Wireless hoco buds,2026-01-28T04:44:32.427Z,,,,,,,,,,,,,,,,,,,,,,,,,,
65f0770588878297865a0cc4,65f0770588878297865a0cc4,2026-01-28T04:44:36.132Z,31,Trials,233,233_creaky.wav,https://benebular.github.io/pharylary/data/audio/233_creaky.wav,98.png,3.png,left,98.png,3.png,left,98.png,yes,400,Wireless hoco buds,2026-01-28T04:44:36.132Z,,,,,,,,,,,,,,,,,,,,,,,,,,
68d4239be163cb15b16606a6,68d4239be163cb15b16606a6,2026-01-28T04:44:34.173Z,12,Trials,258,258_creaky.wav,https://benebular.github.io/pharylary/data/audio/258_creaky.wav,142.png,47.png,left,142.png,47.png,left,142.png,yes,622,Wired Headset,2026-01-28T04:44:34.173Z,,,,,,,,,,,,,,,,,,,,,,,,,,
68d4239be163cb15b16606a6,68d4239be163cb15b16606a6,2026-01-28T04:44:38.791Z,13,Trials,247,247_creaky.wav,https://benebular.github.io/pharylary/data/audio/247_creaky.wav,120.png,25.png,left,120.png,25.png,left,120.png,yes,931,Wired Headset,2026-01-28T04:44:38.791Z,,,,,,,,,,,,,,,,,,,,,,,,,,
65f0770588878297865a0cc4,65f0770588878297865a0cc4,2026-01-28T04:44:40.051Z,32,Trials,182,182_creaky.wav,https://benebular.github.io/pharylary/data/audio/182_creaky.wav,40.png,135.png,left,40.png,135.png,left,40.png,yes,519,Wireless hoco buds,2026-01-28T04:44:40.051Z,,,,,,,,,,,,,,,,,,,,,,,,,,
65f0770588878297865a0cc4,65f0770588878297865a0cc4,2026-01-28T04:44:44.120Z,33,Trials,104,104_non-creaky.wav,https://benebular.github.io/pharylary/data/audio/104_non-creaky.wav,121.png,26.png,right,26.png,121.png,right,121.png,yes,502,Wireless hoco buds,2026-01-28T04:44:44.120Z,,,,,,,,,,,,,,,,,,,,,,,,,,
68d4239be163cb15b16606a6,68d4239be163cb15b16606a6,2026-01-28T04:44:43.687Z,14,Trials,88,88_non-creaky.wav,https://benebular.github.io/pharylary/data/audio/88_non-creaky.wav,96.png,1.png,left,96.png,1.png,left,96.png,yes,1097,Wired Headset,2026-01-28T04:44:43.687Z,,,,,,,,,,,,,,,,,,,,,,,,,,
68d4239be163cb15b16606a6,68d4239be163cb15b16606a6,2026-01-28T04:44:48.064Z,15,Trials,241,241_creaky.wav,https://benebular.github.io/pharylary/data/audio/241_creaky.wav,112.png,16.png,right,16.png,112.png,right,112.png,yes,764,Wired Headset,2026-01-28T04:44:48.064Z,,,,,,,,,,,,,,,,,,,,,,,,,,
65f0770588878297865a0cc4,65f0770588878297865a0cc4,2026-01-28T04:44:47.866Z,34,Trials,26,26_non-creaky.wav,https://benebular.github.io/pharylary/data/audio/26_non-creaky.wav,26.png,121.png,right,121.png,26.png,right,26.png,yes,454,Wireless hoco buds,2026-01-28T04:44:47.866Z,,,,,,,,,,,,,,,,,,,,,,,,,,
65f0770588878297865a0cc4,65f0770588878297865a0cc4,2026-01-28T04:44:52.376Z,35,Trials,222,222_creaky.wav,https://benebular.github.io/pharylary/data/audio/222_creaky.wav,86.png,181.png,left,86.png,181.png,left,86.png,yes,854,Wireless hoco buds,2026-01-28T04:44:52.376Z,,,,,,,,,,,,,,,,,,,,,,,,,,
68d4239be163cb15b16606a6,68d4239be163cb15b16606a6,2026-01-28T04:44:53.408Z,16,Trials,141,141_non-creaky.wav,https://benebular.github.io/pharylary/data/audio/141_non-creaky.wav,179.png,84.png,right,84.png,179.png,right,179.png,yes,988,Wired Headset,2026-01-28T04:44:53.408Z,,,,,,,,,,,,,,,,,,,,,,,,,,
65f0770588878297865a0cc4,65f0770588878297865a0cc4,2026-01-28T04:44:56.338Z,36,Trials,164,164_creaky.wav,https://benebular.github.io/pharylary/data/audio/164_creaky.wav,20.png,115.png,right,115.png,20.png,right,20.png,yes,477,Wireless hoco buds,2026-01-28T04:44:56.338Z,,,,,,,,,,,,,,,,,,,,,,,,,,
65f0770588878297865a0cc4,65f0770588878297865a0cc4,2026-01-28T04:45:00.091Z,37,Trials,254,254_creaky.wav,https://benebular.github.io/pharylary/data/audio/254_creaky.wav,135.png,40.png,left,135.png,40.png,left,135.png,yes,410,Wireless hoco buds,2026-01-28T04:45:00.091Z,,,,,,,,,,,,,,,,,,,,,,,,,,
68d4239be163cb15b16606a6,68d4239be163cb15b16606a6,2026-01-28T04:45:01.021Z,17,Trials,195,195_creaky.wav,https://benebular.github.io/pharylary/data/audio/195_creaky.wav,54.png,149.png,left,54.png,149.png,left,54.png,yes,2211,Wired Headset,2026-01-28T04:45:01.021Z,,,,,,,,,,,,,,,,,,,,,,,,,,
65f0770588878297865a0cc4,65f0770588878297865a0cc4,2026-01-28T04:45:04.353Z,38,Trials,133,133_non-creaky.wav,https://benebular.github.io/pharylary/data/audio/133_non-creaky.wav,165.png,70.png,left,165.png,70.png,right,70.png,no,769,Wireless hoco buds,2026-01-28T04:45:04.353Z,,,,,,,,,,,,,,,,,,,,,,,,,,
68d4239be163cb15b16606a6,68d4239be163cb15b16606a6,2026-01-28T04:45:05.861Z,18,Trials,251,251_creaky.wav,https://benebular.github.io/pharylary/data/audio/251_creaky.wav,127.png,32.png,left,127.png,32.png,left,127.png,yes,1231,Wired Headset,2026-01-28T04:45:05.861Z,,,,,,,,,,,,,,,,,,,,,,,,,,
65f0770588878297865a0cc4,65f0770588878297865a0cc4,2026-01-28T04:45:08.522Z,39,Trials,24,24_non-creaky.wav,https://benebular.github.io/pharylary/data/audio/24_non-creaky.wav,24.png,119.png,left,24.png,119.png,left,24.png,yes,652,Wireless hoco buds,2026-01-28T04:45:08.522Z,,,,,,,,,,,,,,,,,,,,,,,,,,
68d4239be163cb15b16606a6,68d4239be163cb15b16606a6,2026-01-28T04:45:10.275Z,19,Trials,53,53_non-creaky.wav,https://benebular.github.io/pharylary/data/audio/53_non-creaky.wav,56.png,151.png,left,56.png,151.png,left,56.png,yes,505,Wired Headset,2026-01-28T04:45:10.275Z,,,,,,,,,,,,,,,,,,,,,,,,,,
65f0770588878297865a0cc4,65f0770588878297865a0cc4,2026-01-28T04:45:13.015Z,40,Trials,97,97_non-creaky.wav,https://benebular.github.io/pharylary/data/audio/97_non-creaky.wav,112.png,16.png,right,16.png,112.png,right,112.png,yes,471,Wireless hoco buds,2026-01-28T04:45:13.015Z,,,,,,,,,,,,,,,,,,,,,,,,,,
68d4239be163cb15b16606a6,68d4239be163cb15b16606a6,2026-01-28T04:45:15.938Z,20,Trials,237,237_creaky.wav,https://benebular.github.io/pharylary/data/audio/237_creaky.wav,104.png,9.png,left,104.png,9.png,left,104.png,yes,1208,Wired Headset,2026-01-28T04:45:15.938Z,,,,,,,,,,,,,,,,,,,,,,,,,,
65f0770588878297865a0cc4,65f0770588878297865a0cc4,2026-01-28T04:45:17.767Z,41,Trials,224,224_creaky.wav,https://benebular.github.io/pharylary/data/audio/224_creaky.wav,80.png,175.png,right,175.png,80.png,right,80.png,yes,1234,Wireless hoco buds,2026-01-28T04:45:17.767Z,,,,,,,,,,,,,,,,,,,,,,,,,,
65f0770588878297865a0cc4,65f0770588878297865a0cc4,2026-01-28T04:45:21.914Z,42,Trials,220,220_creaky.wav,https://benebular.github.io/pharylary/data/audio/220_creaky.wav,84.png,179.png,right,179.png,84.png,right,84.png,yes,491,Wireless hoco buds,2026-01-28T04:45:21.914Z,,,,,,,,,,,,,,,,,,,,,,,,,,
68d4239be163cb15b16606a6,68d4239be163cb15b16606a6,2026-01-28T04:45:21.285Z,21,Trials,239,239_creaky.wav,https://benebular.github.io/pharylary/data/audio/239_creaky.wav,107.png,12.png,left,107.png,12.png,left,107.png,yes,535,Wired Headset,2026-01-28T04:45:21.285Z,,,,,,,,,,,,,,,,,,,,,,,,,,
65f0770588878297865a0cc4,65f0770588878297865a0cc4,2026-01-28T04:45:26.456Z,43,Trials,87,87_non-creaky.wav,https://benebular.github.io/pharylary/data/audio/87_non-creaky.wav,87.png,182.png,right,182.png,87.png,right,87.png,yes,964,Wireless hoco buds,2026-01-28T04:45:26.456Z,,,,,,,,,,,,,,,,,,,,,,,,,,
68d4239be163cb15b16606a6,68d4239be163cb15b16606a6,2026-01-28T04:45:28.297Z,22,Trials,172,172_creaky.wav,https://benebular.github.io/pharylary/data/audio/172_creaky.wav,28.png,123.png,left,28.png,123.png,right,123.png,no,2887,Wired Headset,2026-01-28T04:45:28.297Z,,,,,,,,,,,,,,,,,,,,,,,,,,
65f0770588878297865a0cc4,65f0770588878297865a0cc4,2026-01-28T04:45:30.401Z,44,Trials,154,154_creaky.wav,https://benebular.github.io/pharylary/data/audio/154_creaky.wav,10.png,104.png,right,104.png,10.png,right,10.png,yes,449,Wireless hoco buds,2026-01-28T04:45:30.401Z,,,,,,,,,,,,,,,,,,,,,,,,,,
68d4239be163cb15b16606a6,68d4239be163cb15b16606a6,2026-01-28T04:45:32.819Z,23,Trials,179,179_creaky.wav,https://benebular.github.io/pharylary/data/audio/179_creaky.wav,34.png,129.png,right,129.png,34.png,right,34.png,yes,479,Wired Headset,2026-01-28T04:45:32.819Z,,,,,,,,,,,,,,,,,,,,,,,,,,
65f0770588878297865a0cc4,65f0770588878297865a0cc4,2026-01-28T04:45:35.937Z,45,Trials,287,287_creaky.wav,https://benebular.github.io/pharylary/data/audio/287_creaky.wav,181.png,86.png,right,86.png,181.png,right,181.png,yes,715,Wireless hoco buds,2026-01-28T04:45:35.937Z,,,,,,,,,,,,,,,,,,,,,,,,,,
68d4239be163cb15b16606a6,68d4239be163cb15b16606a6,2026-01-28T04:45:37.356Z,24,Trials,248,248_creaky.wav,https://benebular.github.io/pharylary/data/audio/248_creaky.wav,121.png,26.png,left,121.png,26.png,left,121.png,yes,416,Wired Headset,2026-01-28T04:45:37.356Z,,,,,,,,,,,,,,,,,,,,,,,,,,
65f0770588878297865a0cc4,65f0770588878297865a0cc4,2026-01-28T04:45:40.263Z,46,Trials,278,278_creaky.wav,https://benebular.github.io/pharylary/data/audio/278_creaky.wav,167.png,72.png,left,167.png,72.png,left,167.png,yes,511,Wireless hoco buds,2026-01-28T04:45:40.263Z,,,,,,,,,,,,,,,,,,,,,,,,,,
68d4239be163cb15b16606a6,68d4239be163cb15b16606a6,2026-01-28T04:45:42.855Z,25,Trials,156,156_creaky.wav,https://benebular.github.io/pharylary/data/audio/156_creaky.wav,12.png,107.png,right,107.png,12.png,right,12.png,yes,1355,Wired Headset,2026-01-28T04:45:42.855Z,,,,,,,,,,,,,,,,,,,,,,,,,,
65f0770588878297865a0cc4,65f0770588878297865a0cc4,2026-01-28T04:45:43.958Z,47,Trials,37,37_non-creaky.wav,https://benebular.github.io/pharylary/data/audio/37_non-creaky.wav,36.png,131.png,right,131.png,36.png,right,36.png,yes,514,Wireless hoco buds,2026-01-28T04:45:43.958Z,,,,,,,,,,,,,,,,,,,,,,,,,,
65f0770588878297865a0cc4,65f0770588878297865a0cc4,2026-01-28T04:45:47.728Z,48,Trials,201,201_creaky.wav,https://benebular.github.io/pharylary/data/audio/201_creaky.wav,62.png,157.png,left,62.png,157.png,left,62.png,yes,547,Wireless hoco buds,2026-01-28T04:45:47.728Z,,,,,,,,,,,,,,,,,,,,,,,,,,
68d4239be163cb15b16606a6,68d4239be163cb15b16606a6,2026-01-28T04:45:47.615Z,26,Trials,279,279_creaky.wav,https://benebular.github.io/pharylary/data/audio/279_creaky.wav,168.png,73.png,left,168.png,73.png,left,168.png,yes,495,Wired Headset,2026-01-28T04:45:47.615Z,,,,,,,,,,,,,,,,,,,,,,,,,,
65f0770588878297865a0cc4,65f0770588878297865a0cc4,2026-01-28T04:45:51.497Z,49,Trials,77,77_non-creaky.wav,https://benebular.github.io/pharylary/data/audio/77_non-creaky.wav,85.png,180.png,right,180.png,85.png,right,85.png,yes,475,Wireless hoco buds,2026-01-28T04:45:51.497Z,,,,,,,,,,,,,,,,,,,,,,,,,,
68d4239be163cb15b16606a6,68d4239be163cb15b16606a6,2026-01-28T04:45:51.521Z,27,Trials,189,189_creaky.wav,https://benebular.github.io/pharylary/data/audio/189_creaky.wav,47.png,142.png,right,142.png,47.png,right,47.png,yes,321,Wired Headset,2026-01-28T04:45:51.521Z,,,,,,,,,,,,,,,,,,,,,,,,,,
65f0770588878297865a0cc4,65f0770588878297865a0cc4,2026-01-28T04:45:55.491Z,50,Trials,188,188_creaky.wav,https://benebular.github.io/pharylary/data/audio/188_creaky.wav,46.png,141.png,right,141.png,46.png,right,46.png,yes,436,Wireless hoco buds,2026-01-28T04:45:55.491Z,,,,,,,,,,,,,,,,,,,,,,,,,,
68d4239be163cb15b16606a6,68d4239be163cb15b16606a6,2026-01-28T04:45:55.828Z,28,Trials,8,8_non-creaky.wav,https://benebular.github.io/pharylary/data/audio/8_non-creaky.wav,6.png,101.png,left,6.png,101.png,left,6.png,yes,558,Wired Headset,2026-01-28T04:45:55.828Z,,,,,,,,,,,,,,,,,,,,,,,,,,
65f0770588878297865a0cc4,65f0770588878297865a0cc4,2026-01-28T04:46:00.885Z,51,Trials,185,185_creaky.wav,https://benebular.github.io/pharylary/data/audio/185_creaky.wav,42.png,137.png,left,42.png,137.png,left,42.png,yes,2495,Wireless hoco buds,2026-01-28T04:46:00.885Z,,,,,,,,,,,,,,,,,,,,,,,,,,
65f0770588878297865a0cc4,65f0770588878297865a0cc4,2026-01-28T04:46:06.461Z,52,Trials,171,171_creaky.wav,https://benebular.github.io/pharylary/data/audio/171_creaky.wav,26.png,121.png,left,26.png,121.png,left,26.png,yes,1170,Wireless hoco buds,2026-01-28T04:46:06.461Z,,,,,,,,,,,,,,,,,,,,,,,,,,
65f0770588878297865a0cc4,65f0770588878297865a0cc4,2026-01-28T04:46:11.438Z,53,Trials,259,259_creaky.wav,https://benebular.github.io/pharylary/data/audio/259_creaky.wav,143.png,48.png,left,143.png,48.png,right,48.png,no,316,Wireless hoco buds,2026-01-28T04:46:11.438Z,,,,,,,,,,,,,,,,,,,,,,,,,,
65f0770588878297865a0cc4,65f0770588878297865a0cc4,2026-01-28T04:46:15.742Z,54,Trials,252,252_creaky.wav,https://benebular.github.io/pharylary/data/audio/252_creaky.wav,129.png,34.png,left,129.png,34.png,left,129.png,yes,417,Wireless hoco buds,2026-01-28T04:46:15.742Z,,,,,,,,,,,,,,,,,,,,,,,,,,
65f0770588878297865a0cc4,65f0770588878297865a0cc4,2026-01-28T04:46:19.850Z,55,Trials,128,128_non-creaky.wav,https://benebular.github.io/pharylary/data/audio/128_non-creaky.wav,159.png,64.png,left,159.png,64.png,left,159.png,yes,499,Wireless hoco buds,2026-01-28T04:46:19.850Z,,,,,,,,,,,,,,,,,,,,,,,,,,
65f0770588878297865a0cc4,65f0770588878297865a0cc4,2026-01-28T04:46:24.297Z,56,Trials,230,230_creaky.wav,https://benebular.github.io/pharylary/data/audio/230_creaky.wav,86.png,181.png,left,86.png,181.png,left,86.png,yes,783,Wireless hoco buds,2026-01-28T04:46:24.297Z,,,,,,,,,,,,,,,,,,,,,,,,,,
65f0770588878297865a0cc4,65f0770588878297865a0cc4,2026-01-28T04:46:41.715Z,,AttentionCheck,,,,,,,,,,,,,Wireless hoco buds,2026-01-28T04:46:41.715Z,,,,,,,,,,,,,,,,,,,,,,https://benebular.github.io/pharylary/experiment/audio_check/motley_t_b.wav,Monthly,3,,
65f0770588878297865a0cc4,65f0770588878297865a0cc4,2026-01-28T04:46:46.803Z,57,Trials,170,170_creaky.wav,https://benebular.github.io/pharylary/data/audio/170_creaky.wav,26.png,121.png,right,121.png,26.png,right,26.png,yes,349,Wireless hoco buds,2026-01-28T04:46:46.803Z,,,,,,,,,,,,,,,,,,,,,,,,,,
65f0770588878297865a0cc4,65f0770588878297865a0cc4,2026-01-28T04:46:51.331Z,58,Trials,146,146_creaky.wav,https://benebular.github.io/pharylary/data/audio/146_creaky.wav,1.png,96.png,left,1.png,96.png,left,1.png,yes,1222,Wireless hoco buds,2026-01-28T04:46:51.331Z,,,,,,,,,,,,,,,,,,,,,,,,,,
65f0770588878297865a0cc4,65f0770588878297865a0cc4,2026-01-28T04:46:54.976Z,59,Trials,208,208_creaky.wav,https://benebular.github.io/pharylary/data/audio/208_creaky.wav,70.png,165.png,left,70.png,165.png,left,70.png,yes,465,Wireless hoco buds,2026-01-28T04:46:54.976Z,,,,,,,,,,,,,,,,,,,,,,,,,,
65f0770588878297865a0cc4,65f0770588878297865a0cc4,2026-01-28T04:46:59.204Z,60,Trials,288,288_creaky.wav,https://benebular.github.io/pharylary/data/audio/288_creaky.wav,182.png,87.png,left,182.png,87.png,left,182.png,yes,602,Wireless hoco buds,2026-01-28T04:46:59.204Z,,,,,,,,,,,,,,,,,,,,,,,,,,
65f0770588878297865a0cc4,65f0770588878297865a0cc4,2026-01-28T04:47:03.863Z,61,Trials,149,149_creaky.wav,https://benebular.github.io/pharylary/data/audio/149_creaky.wav,4.png,99.png,left,4.png,99.png,left,4.png,yes,1388,Wireless hoco buds,2026-01-28T04:47:03.863Z,,,,,,,,,,,,,,,,,,,,,,,,,,
65f0770588878297865a0cc4,65f0770588878297865a0cc4,2026-01-28T04:47:07.942Z,62,Trials,249,249_creaky.wav,https://benebular.github.io/pharylary/data/audio/249_creaky.wav,123.png,28.png,left,123.png,28.png,left,123.png,yes,466,Wireless hoco buds,2026-01-28T04:47:07.942Z,,,,,,,,,,,,,,,,,,,,,,,,,,
65f0770588878297865a0cc4,65f0770588878297865a0cc4,2026-01-28T04:47:12.035Z,63,Trials,125,125_non-creaky.wav,https://benebular.github.io/pharylary/data/audio/125_non-creaky.wav,156.png,61.png,left,156.png,61.png,left,156.png,yes,694,Wireless hoco buds,2026-01-28T04:47:12.035Z,,,,,,,,,,,,,,,,,,,,,,,,,,
65f0770588878297865a0cc4,65f0770588878297865a0cc4,2026-01-28T04:47:16.422Z,64,Trials,120,120_non-creaky.wav,https://benebular.github.io/pharylary/data/audio/120_non-creaky.wav,149.png,54.png,left,149.png,54.png,left,149.png,yes,511,Wireless hoco buds,2026-01-28T04:47:16.422Z,,,,,,,,,,,,,,,,,,,,,,,,,,
65f0770588878297865a0cc4,65f0770588878297865a0cc4,2026-01-28T04:47:20.900Z,65,Trials,280,280_creaky.wav,https://benebular.github.io/pharylary/data/audio/280_creaky.wav,169.png,74.png,left,169.png,74.png,left,169.png,yes,397,Wireless hoco buds,2026-01-28T04:47:20.900Z,,,,,,,,,,,,,,,,,,,,,,,,,,
65f0770588878297865a0cc4,65f0770588878297865a0cc4,2026-01-28T04:47:24.578Z,66,Trials,174,174_creaky.wav,https://benebular.github.io/pharylary/data/audio/174_creaky.wav,30.png,125.png,right,125.png,30.png,right,30.png,yes,498,Wireless hoco buds,2026-01-28T04:47:24.578Z,,,,,,,,,,,,,,,,,,,,,,,,,,
65f0770588878297865a0cc4,65f0770588878297865a0cc4,2026-01-28T04:47:31.419Z,67,Trials,223,223_creaky.wav,https://benebular.github.io/pharylary/data/audio/223_creaky.wav,87.png,182.png,right,182.png,87.png,right,87.png,yes,2499,Wireless hoco buds,2026-01-28T04:47:31.419Z,,,,,,,,,,,,,,,,,,,,,,,,,,
65f0770588878297865a0cc4,65f0770588878297865a0cc4,2026-01-28T04:47:35.331Z,68,Trials,89,89_non-creaky.wav,https://benebular.github.io/pharylary/data/audio/89_non-creaky.wav,98.png,3.png,right,3.png,98.png,right,98.png,yes,401,Wireless hoco buds,2026-01-28T04:47:35.331Z,,,,,,,,,,,,,,,,,,,,,,,,,,
65f0770588878297865a0cc4,65f0770588878297865a0cc4,2026-01-28T04:47:39.349Z,69,Trials,195,195_creaky.wav,https://benebular.github.io/pharylary/data/audio/195_creaky.wav,54.png,149.png,left,54.png,149.png,left,54.png,yes,377,Wireless hoco buds,2026-01-28T04:47:39.349Z,,,,,,,,,,,,,,,,,,,,,,,,,,
65f0770588878297865a0cc4,65f0770588878297865a0cc4,2026-01-28T04:47:43.104Z,70,Trials,189,189_creaky.wav,https://benebular.github.io/pharylary/data/audio/189_creaky.wav,47.png,142.png,left,47.png,142.png,left,47.png,yes,389,Wireless hoco buds,2026-01-28T04:47:43.104Z,,,,,,,,,,,,,,,,,,,,,,,,,,
65f0770588878297865a0cc4,65f0770588878297865a0cc4,2026-01-28T04:47:47.430Z,71,Trials,61,61_non-creaky.wav,https://benebular.github.io/pharylary/data/audio/61_non-creaky.wav,67.png,162.png,right,162.png,67.png,right,67.png,yes,525,Wireless hoco buds,2026-01-28T04:47:47.430Z,,,,,,,,,,,,,,,,,,,,,,,,,,
65f0770588878297865a0cc4,65f0770588878297865a0cc4,2026-01-28T04:47:51.260Z,72,Trials,209,209_creaky.wav,https://benebular.github.io/pharylary/data/audio/209_creaky.wav,72.png,167.png,right,167.png,72.png,right,72.png,yes,418,Wireless hoco buds,2026-01-28T04:47:51.260Z,,,,,,,,,,,,,,,,,,,,,,,,,,
65f0770588878297865a0cc4,65f0770588878297865a0cc4,2026-01-28T04:47:56.003Z,73,Trials,187,187_creaky.wav,https://benebular.github.io/pharylary/data/audio/187_creaky.wav,44.png,139.png,left,44.png,139.png,left,44.png,yes,812,Wireless hoco buds,2026-01-28T04:47:56.003Z,,,,,,,,,,,,,,,,,,,,,,,,,,
65f0770588878297865a0cc4,65f0770588878297865a0cc4,2026-01-28T04:47:59.815Z,74,Trials,7,7_non-creaky.wav,https://benebular.github.io/pharylary/data/audio/7_non-creaky.wav,7.png,101.png,left,7.png,101.png,left,7.png,yes,364,Wireless hoco buds,2026-01-28T04:47:59.815Z,,,,,,,,,,,,,,,,,,,,,,,,,,
65f0770588878297865a0cc4,65f0770588878297865a0cc4,2026-01-28T04:48:03.753Z,75,Trials,153,153_creaky.wav,https://benebular.github.io/pharylary/data/audio/153_creaky.wav,9.png,104.png,left,9.png,104.png,left,9.png,yes,422,Wireless hoco buds,2026-01-28T04:48:03.753Z,,,,,,,,,,,,,,,,,,,,,,,,,,
65f0770588878297865a0cc4,65f0770588878297865a0cc4,2026-01-28T04:48:08.845Z,76,Trials,219,219_creaky.wav,https://benebular.github.io/pharylary/data/audio/219_creaky.wav,83.png,178.png,left,83.png,178.png,left,83.png,yes,391,Wireless hoco buds,2026-01-28T04:48:08.845Z,,,,,,,,,,,,,,,,,,,,,,,,,,
65f0770588878297865a0cc4,65f0770588878297865a0cc4,2026-01-28T04:48:12.674Z,77,Trials,261,261_creaky.wav,https://benebular.github.io/pharylary/data/audio/261_creaky.wav,146.png,51.png,right,51.png,146.png,right,146.png,yes,528,Wireless hoco buds,2026-01-28T04:48:12.674Z,,,,,,,,,,,,,,,,,,,,,,,,,,
65f0770588878297865a0cc4,65f0770588878297865a0cc4,2026-01-28T04:48:16.968Z,78,Trials,244,244_creaky.wav,https://benebular.github.io/pharylary/data/audio/244_creaky.wav,117.png,22.png,right,22.png,117.png,right,117.png,yes,445,Wireless hoco buds,2026-01-28T04:48:16.968Z,,,,,,,,,,,,,,,,,,,,,,,,,,
68d4239be163cb15b16606a6,68d4239be163cb15b16606a6,2026-01-28T04:48:20.412Z,,AttentionCheck,,,,,,,,,,,,,Wired Headset,2026-01-28T04:48:20.412Z,,,,,,,,,,,,,,,,,,,,,,https://benebular.github.io/pharylary/experiment/audio_check/seller_b.wav,Solar,2,,
65f0770588878297865a0cc4,65f0770588878297865a0cc4,2026-01-28T04:48:21.628Z,79,Trials,147,147_creaky.wav,https://benebular.github.io/pharylary/data/audio/147_creaky.wav,3.png,98.png,right,98.png,3.png,right,3.png,yes,377,Wireless hoco buds,2026-01-28T04:48:21.628Z,,,,,,,,,,,,,,,,,,,,,,,,,,
68d4239be163cb15b16606a6,68d4239be163cb15b16606a6,2026-01-28T04:48:28.850Z,29,Trials,197,197_creaky.wav,https://benebular.github.io/pharylary/data/audio/197_creaky.wav,56.png,151.png,left,56.png,151.png,left,56.png,yes,491,Wired Headset,2026-01-28T04:48:28.850Z,,,,,,,,,,,,,,,,,,,,,,,,,,
65f0770588878297865a0cc4,65f0770588878297865a0cc4,2026-01-28T04:48:30.085Z,80,Trials,235,235_creaky.wav,https://benebular.github.io/pharylary/data/audio/235_creaky.wav,101.png,6.png,left,101.png,6.png,left,101.png,yes,73,Wireless hoco buds,2026-01-28T04:48:30.085Z,,,,,,,,,,,,,,,,,,,,,,,,,,
65f0770588878297865a0cc4,65f0770588878297865a0cc4,2026-01-28T04:48:34.364Z,81,Trials,126,126_non-creaky.wav,https://benebular.github.io/pharylary/data/audio/126_non-creaky.wav,157.png,62.png,right,62.png,157.png,right,157.png,yes,1074,Wireless hoco buds,2026-01-28T04:48:34.364Z,,,,,,,,,,,,,,,,,,,,,,,,,,
68d4239be163cb15b16606a6,68d4239be163cb15b16606a6,2026-01-28T04:48:32.973Z,30,Trials,86,86_non-creaky.wav,https://benebular.github.io/pharylary/data/audio/86_non-creaky.wav,86.png,181.png,right,181.png,86.png,right,86.png,yes,394,Wired Headset,2026-01-28T04:48:32.973Z,,,,,,,,,,,,,,,,,,,,,,,,,,
68d4239be163cb15b16606a6,68d4239be163cb15b16606a6,2026-01-28T04:48:37.717Z,31,Trials,187,187_creaky.wav,https://benebular.github.io/pharylary/data/audio/187_creaky.wav,44.png,139.png,right,139.png,44.png,right,44.png,yes,1248,Wired Headset,2026-01-28T04:48:37.717Z,,,,,,,,,,,,,,,,,,,,,,,,,,
65f0770588878297865a0cc4,65f0770588878297865a0cc4,2026-01-28T04:48:38.840Z,82,Trials,13,13_non-creaky.wav,https://benebular.github.io/pharylary/data/audio/13_non-creaky.wav,12.png,107.png,right,107.png,12.png,right,12.png,yes,1220,Wireless hoco buds,2026-01-28T04:48:38.840Z,,,,,,,,,,,,,,,,,,,,,,,,,,
65f0770588878297865a0cc4,65f0770588878297865a0cc4,2026-01-28T04:48:42.426Z,83,Trials,94,94_non-creaky.wav,https://benebular.github.io/pharylary/data/audio/94_non-creaky.wav,104.png,10.png,right,10.png,104.png,right,104.png,yes,525,Wireless hoco buds,2026-01-28T04:48:42.426Z,,,,,,,,,,,,,,,,,,,,,,,,,,
68d4239be163cb15b16606a6,68d4239be163cb15b16606a6,2026-01-28T04:48:41.875Z,32,Trials,167,167_creaky.wav,https://benebular.github.io/pharylary/data/audio/167_creaky.wav,23.png,118.png,right,118.png,23.png,right,23.png,yes,776,Wired Headset,2026-01-28T04:48:41.875Z,,,,,,,,,,,,,,,,,,,,,,,,,,
65f0770588878297865a0cc4,65f0770588878297865a0cc4,2026-01-28T04:48:46.055Z,84,Trials,250,250_creaky.wav,https://benebular.github.io/pharylary/data/audio/250_creaky.wav,125.png,30.png,left,125.png,30.png,right,30.png,no,386,Wireless hoco buds,2026-01-28T04:48:46.055Z,,,,,,,,,,,,,,,,,,,,,,,,,,
68d4239be163cb15b16606a6,68d4239be163cb15b16606a6,2026-01-28T04:48:47.072Z,33,Trials,95,95_non-creaky.wav,https://benebular.github.io/pharylary/data/audio/95_non-creaky.wav,107.png,12.png,right,12.png,107.png,right,107.png,yes,1423,Wired Headset,2026-01-28T04:48:47.072Z,,,,,,,,,,,,,,,,,,,,,,,,,,
68d4239be163cb15b16606a6,68d4239be163cb15b16606a6,2026-01-28T04:48:51.399Z,34,Trials,74,74_non-creaky.wav,https://benebular.github.io/pharylary/data/audio/74_non-creaky.wav,82.png,177.png,left,82.png,177.png,left,82.png,yes,530,Wired Headset,2026-01-28T04:48:51.399Z,,,,,,,,,,,,,,,,,,,,,,,,,,
68d4239be163cb15b16606a6,68d4239be163cb15b16606a6,2026-01-28T04:48:59.241Z,35,Trials,205,205_creaky.wav,https://benebular.github.io/pharylary/data/audio/205_creaky.wav,67.png,162.png,left,67.png,162.png,left,67.png,yes,2952,Wired Headset,2026-01-28T04:48:59.241Z,,,,,,,,,,,,,,,,,,,,,,,,,,
68d4239be163cb15b16606a6,68d4239be163cb15b16606a6,2026-01-28T04:49:02.981Z,36,Trials,68,68_non-creaky.wav,https://benebular.github.io/pharylary/data/audio/68_non-creaky.wav,75.png,165.png,left,75.png,165.png,left,75.png,yes,362,Wired Headset,2026-01-28T04:49:02.981Z,,,,,,,,,,,,,,,,,,,,,,,,,,
68d4239be163cb15b16606a6,68d4239be163cb15b16606a6,2026-01-28T04:49:07.087Z,37,Trials,191,191_creaky.wav,https://benebular.github.io/pharylary/data/audio/191_creaky.wav,50.png,145.png,left,50.png,145.png,left,50.png,yes,398,Wired Headset,2026-01-28T04:49:07.087Z,,,,,,,,,,,,,,,,,,,,,,,,,,
68d4239be163cb15b16606a6,68d4239be163cb15b16606a6,2026-01-28T04:49:11.675Z,38,Trials,264,264_creaky.wav,https://benebular.github.io/pharylary/data/audio/264_creaky.wav,149.png,54.png,left,149.png,54.png,left,149.png,yes,356,Wired Headset,2026-01-28T04:49:11.675Z,,,,,,,,,,,,,,,,,,,,,,,,,,
65f0770588878297865a0cc4,65f0770588878297865a0cc4,2026-01-28T04:49:13.762Z,,AttentionCheck,,,,,,,,,,,,,Wireless hoco buds,2026-01-28T04:49:13.762Z,,,,,,,,,,,,,,,,,,,,,,https://benebular.github.io/pharylary/experiment/audio_check/faint_t_b.wav,Feigned,4,,
65f0770588878297865a0cc4,65f0770588878297865a0cc4,2026-01-28T04:49:18.902Z,85,Trials,47,47_non-creaky.wav,https://benebular.github.io/pharylary/data/audio/47_non-creaky.wav,50.png,145.png,right,145.png,50.png,right,50.png,yes,1301,Wireless hoco buds,2026-01-28T04:49:18.902Z,,,,,,,,,,,,,,,,,,,,,,,,,,
68d4239be163cb15b16606a6,68d4239be163cb15b16606a6,2026-01-28T04:49:17.680Z,39,Trials,113,113_non-creaky.wav,https://benebular.github.io/pharylary/data/audio/113_non-creaky.wav,141.png,46.png,right,46.png,141.png,right,141.png,yes,381,Wired Headset,2026-01-28T04:49:17.680Z,,,,,,,,,,,,,,,,,,,,,,,,,,
65f0770588878297865a0cc4,65f0770588878297865a0cc4,2026-01-28T04:49:22.916Z,86,Trials,88,88_non-creaky.wav,https://benebular.github.io/pharylary/data/audio/88_non-creaky.wav,96.png,1.png,left,96.png,1.png,left,96.png,yes,690,Wireless hoco buds,2026-01-28T04:49:22.916Z,,,,,,,,,,,,,,,,,,,,,,,,,,
68d4239be163cb15b16606a6,68d4239be163cb15b16606a6,2026-01-28T04:49:24.088Z,40,Trials,32,32_non-creaky.wav,https://benebular.github.io/pharylary/data/audio/32_non-creaky.wav,32.png,127.png,left,32.png,127.png,right,127.png,no,1159,Wired Headset,2026-01-28T04:49:24.088Z,,,,,,,,,,,,,,,,,,,,,,,,,,
65f0770588878297865a0cc4,65f0770588878297865a0cc4,2026-01-28T04:49:27.702Z,87,Trials,163,163_creaky.wav,https://benebular.github.io/pharylary/data/audio/163_creaky.wav,18.png,113.png,left,18.png,113.png,left,18.png,yes,1230,Wireless hoco buds,2026-01-28T04:49:27.702Z,,,,,,,,,,,,,,,,,,,,,,,,,,
68d4239be163cb15b16606a6,68d4239be163cb15b16606a6,2026-01-28T04:49:30.019Z,41,Trials,256,256_creaky.wav,https://benebular.github.io/pharylary/data/audio/256_creaky.wav,139.png,44.png,right,44.png,139.png,right,139.png,yes,1720,Wired Headset,2026-01-28T04:49:30.019Z,,,,,,,,,,,,,,,,,,,,,,,,,,
65f0770588878297865a0cc4,65f0770588878297865a0cc4,2026-01-28T04:49:31.805Z,88,Trials,81,81_non-creaky.wav,https://benebular.github.io/pharylary/data/audio/81_non-creaky.wav,81.png,176.png,right,176.png,81.png,right,81.png,yes,945,Wireless hoco buds,2026-01-28T04:49:31.805Z,,,,,,,,,,,,,,,,,,,,,,,,,,
65f0770588878297865a0cc4,65f0770588878297865a0cc4,2026-01-28T04:49:35.559Z,89,Trials,58,58_non-creaky.wav,https://benebular.github.io/pharylary/data/audio/58_non-creaky.wav,63.png,158.png,left,63.png,158.png,left,63.png,yes,286,Wireless hoco buds,2026-01-28T04:49:35.559Z,,,,,,,,,,,,,,,,,,,,,,,,,,
68d4239be163cb15b16606a6,68d4239be163cb15b16606a6,2026-01-28T04:49:35.316Z,42,Trials,7,7_non-creaky.wav,https://benebular.github.io/pharylary/data/audio/7_non-creaky.wav,7.png,101.png,left,7.png,101.png,left,7.png,yes,1447,Wired Headset,2026-01-28T04:49:35.316Z,,,,,,,,,,,,,,,,,,,,,,,,,,
65f0770588878297865a0cc4,65f0770588878297865a0cc4,2026-01-28T04:49:39.180Z,90,Trials,121,121_non-creaky.wav,https://benebular.github.io/pharylary/data/audio/121_non-creaky.wav,150.png,55.png,left,150.png,55.png,left,150.png,yes,379,Wireless hoco buds,2026-01-28T04:49:39.180Z,,,,,,,,,,,,,,,,,,,,,,,,,,
68d4239be163cb15b16606a6,68d4239be163cb15b16606a6,2026-01-28T04:49:39.254Z,43,Trials,212,212_creaky.wav,https://benebular.github.io/pharylary/data/audio/212_creaky.wav,75.png,165.png,right,165.png,75.png,right,75.png,yes,405,Wired Headset,2026-01-28T04:49:39.254Z,,,,,,,,,,,,,,,,,,,,,,,,,,
65f0770588878297865a0cc4,65f0770588878297865a0cc4,2026-01-28T04:49:42.825Z,91,Trials,165,165_creaky.wav,https://benebular.github.io/pharylary/data/audio/165_creaky.wav,20.png,115.png,left,20.png,115.png,left,20.png,yes,425,Wireless hoco buds,2026-01-28T04:49:42.825Z,,,,,,,,,,,,,,,,,,,,,,,,,,
68d4239be163cb15b16606a6,68d4239be163cb15b16606a6,2026-01-28T04:49:43.408Z,44,Trials,82,82_non-creaky.wav,https://benebular.github.io/pharylary/data/audio/82_non-creaky.wav,82.png,177.png,right,177.png,82.png,right,82.png,yes,449,Wired Headset,2026-01-28T04:49:43.408Z,,,,,,,,,,,,,,,,,,,,,,,,,,
65f0770588878297865a0cc4,65f0770588878297865a0cc4,2026-01-28T04:49:46.694Z,92,Trials,82,82_non-creaky.wav,https://benebular.github.io/pharylary/data/audio/82_non-creaky.wav,82.png,177.png,right,177.png,82.png,right,82.png,yes,812,Wireless hoco buds,2026-01-28T04:49:46.694Z,,,,,,,,,,,,,,,,,,,,,,,,,,
68d4239be163cb15b16606a6,68d4239be163cb15b16606a6,2026-01-28T04:49:48.294Z,45,Trials,11,11_non-creaky.wav,https://benebular.github.io/pharylary/data/audio/11_non-creaky.wav,9.png,104.png,left,9.png,104.png,left,9.png,yes,1415,Wired Headset,2026-01-28T04:49:48.294Z,,,,,,,,,,,,,,,,,,,,,,,,,,
65f0770588878297865a0cc4,65f0770588878297865a0cc4,2026-01-28T04:49:50.223Z,93,Trials,85,85_non-creaky.wav,https://benebular.github.io/pharylary/data/audio/85_non-creaky.wav,85.png,180.png,left,85.png,180.png,left,85.png,yes,532,Wireless hoco buds,2026-01-28T04:49:50.223Z,,,,,,,,,,,,,,,,,,,,,,,,,,
65f0770588878297865a0cc4,65f0770588878297865a0cc4,2026-01-28T04:49:53.518Z,94,Trials,10,10_non-creaky.wav,https://benebular.github.io/pharylary/data/audio/10_non-creaky.wav,10.png,104.png,right,104.png,10.png,right,10.png,yes,256,Wireless hoco buds,2026-01-28T04:49:53.518Z,,,,,,,,,,,,,,,,,,,,,,,,,,
68d4239be163cb15b16606a6,68d4239be163cb15b16606a6,2026-01-28T04:49:53.580Z,46,Trials,6,6_non-creaky.wav,https://benebular.github.io/pharylary/data/audio/6_non-creaky.wav,6.png,101.png,right,101.png,6.png,right,6.png,yes,1321,Wired Headset,2026-01-28T04:49:53.580Z,,,,,,,,,,,,,,,,,,,,,,,,,,
65f0770588878297865a0cc4,65f0770588878297865a0cc4,2026-01-28T04:49:57.064Z,95,Trials,218,218_creaky.wav,https://benebular.github.io/pharylary/data/audio/218_creaky.wav,82.png,177.png,left,82.png,177.png,left,82.png,yes,263,Wireless hoco buds,2026-01-28T04:49:57.064Z,,,,,,,,,,,,,,,,,,,,,,,,,,
68d4239be163cb15b16606a6,68d4239be163cb15b16606a6,2026-01-28T04:49:57.972Z,47,Trials,75,75_non-creaky.wav,https://benebular.github.io/pharylary/data/audio/75_non-creaky.wav,83.png,178.png,left,83.png,178.png,left,83.png,yes,533,Wired Headset,2026-01-28T04:49:57.972Z,,,,,,,,,,,,,,,,,,,,,,,,,,
65f0770588878297865a0cc4,65f0770588878297865a0cc4,2026-01-28T04:50:00.891Z,96,Trials,136,136_non-creaky.wav,https://benebular.github.io/pharylary/data/audio/136_non-creaky.wav,169.png,74.png,right,74.png,169.png,right,169.png,yes,367,Wireless hoco buds,2026-01-28T04:50:00.891Z,,,,,,,,,,,,,,,,,,,,,,,,,,
68d4239be163cb15b16606a6,68d4239be163cb15b16606a6,2026-01-28T04:50:02.092Z,48,Trials,39,39_non-creaky.wav,https://benebular.github.io/pharylary/data/audio/39_non-creaky.wav,40.png,135.png,left,40.png,135.png,left,40.png,yes,603,Wired Headset,2026-01-28T04:50:02.092Z,,,,,,,,,,,,,,,,,,,,,,,,,,
65f0770588878297865a0cc4,65f0770588878297865a0cc4,2026-01-28T04:50:04.536Z,97,Trials,45,45_non-creaky.wav,https://benebular.github.io/pharylary/data/audio/45_non-creaky.wav,47.png,142.png,left,47.png,142.png,left,47.png,yes,395,Wireless hoco buds,2026-01-28T04:50:04.536Z,,,,,,,,,,,,,,,,,,,,,,,,,,
65f0770588878297865a0cc4,65f0770588878297865a0cc4,2026-01-28T04:50:08.065Z,98,Trials,11,11_non-creaky.wav,https://benebular.github.io/pharylary/data/audio/11_non-creaky.wav,9.png,104.png,right,104.png,9.png,right,9.png,yes,454,Wireless hoco buds,2026-01-28T04:50:08.065Z,,,,,,,,,,,,,,,,,,,,,,,,,,
68d4239be163cb15b16606a6,68d4239be163cb15b16606a6,2026-01-28T04:50:07.851Z,49,Trials,93,93_non-creaky.wav,https://benebular.github.io/pharylary/data/audio/93_non-creaky.wav,104.png,9.png,left,104.png,9.png,left,104.png,yes,1862,Wired Headset,2026-01-28T04:50:07.851Z,,,,,,,,,,,,,,,,,,,,,,,,,,
65f0770588878297865a0cc4,65f0770588878297865a0cc4,2026-01-28T04:50:11.377Z,99,Trials,111,111_non-creaky.wav,https://benebular.github.io/pharylary/data/audio/111_non-creaky.wav,137.png,42.png,right,42.png,137.png,right,137.png,yes,406,Wireless hoco buds,2026-01-28T04:50:11.377Z,,,,,,,,,,,,,,,,,,,,,,,,,,
68d4239be163cb15b16606a6,68d4239be163cb15b16606a6,2026-01-28T04:50:12.862Z,50,Trials,265,265_creaky.wav,https://benebular.github.io/pharylary/data/audio/265_creaky.wav,150.png,55.png,left,150.png,55.png,left,150.png,yes,823,Wired Headset,2026-01-28T04:50:12.862Z,,,,,,,,,,,,,,,,,,,,,,,,,,
65f0770588878297865a0cc4,65f0770588878297865a0cc4,2026-01-28T04:50:15.081Z,100,Trials,20,20_non-creaky.wav,https://benebular.github.io/pharylary/data/audio/20_non-creaky.wav,20.png,115.png,right,115.png,20.png,right,20.png,yes,317,Wireless hoco buds,2026-01-28T04:50:15.081Z,,,,,,,,,,,,,,,,,,,,,,,,,,
68d4239be163cb15b16606a6,68d4239be163cb15b16606a6,2026-01-28T04:50:17.292Z,51,Trials,128,128_non-creaky.wav,https://benebular.github.io/pharylary/data/audio/128_non-creaky.wav,159.png,64.png,left,159.png,64.png,left,159.png,yes,403,Wired Headset,2026-01-28T04:50:17.292Z,,,,,,,,,,,,,,,,,,,,,,,,,,
65f0770588878297865a0cc4,65f0770588878297865a0cc4,2026-01-28T04:50:18.974Z,101,Trials,3,3_non-creaky.wav,https://benebular.github.io/pharylary/data/audio/3_non-creaky.wav,3.png,98.png,right,98.png,3.png,right,3.png,yes,411,Wireless hoco buds,2026-01-28T04:50:18.974Z,,,,,,,,,,,,,,,,,,,,,,,,,,
65f0770588878297865a0cc4,65f0770588878297865a0cc4,2026-01-28T04:50:22.845Z,102,Trials,183,183_creaky.wav,https://benebular.github.io/pharylary/data/audio/183_creaky.wav,40.png,135.png,right,135.png,40.png,right,40.png,yes,523,Wireless hoco buds,2026-01-28T04:50:22.845Z,,,,,,,,,,,,,,,,,,,,,,,,,,
68d4239be163cb15b16606a6,68d4239be163cb15b16606a6,2026-01-28T04:50:22.306Z,52,Trials,4,4_non-creaky.wav,https://benebular.github.io/pharylary/data/audio/4_non-creaky.wav,4.png,99.png,left,4.png,99.png,left,4.png,yes,1007,Wired Headset,2026-01-28T04:50:22.306Z,,,,,,,,,,,,,,,,,,,,,,,,,,
68d4239be163cb15b16606a6,68d4239be163cb15b16606a6,2026-01-28T04:50:26.022Z,53,Trials,76,76_non-creaky.wav,https://benebular.github.io/pharylary/data/audio/76_non-creaky.wav,84.png,179.png,right,179.png,84.png,right,84.png,yes,333,Wired Headset,2026-01-28T04:50:26.022Z,,,,,,,,,,,,,,,,,,,,,,,,,,
65f0770588878297865a0cc4,65f0770588878297865a0cc4,2026-01-28T04:50:26.422Z,103,Trials,277,277_creaky.wav,https://benebular.github.io/pharylary/data/audio/277_creaky.wav,165.png,70.png,right,70.png,165.png,left,70.png,no,561,Wireless hoco buds,2026-01-28T04:50:26.422Z,,,,,,,,,,,,,,,,,,,,,,,,,,
65f0770588878297865a0cc4,65f0770588878297865a0cc4,2026-01-28T04:50:30.176Z,104,Trials,256,256_creaky.wav,https://benebular.github.io/pharylary/data/audio/256_creaky.wav,139.png,44.png,left,139.png,44.png,left,139.png,yes,725,Wireless hoco buds,2026-01-28T04:50:30.176Z,,,,,,,,,,,,,,,,,,,,,,,,,,
68d4239be163cb15b16606a6,68d4239be163cb15b16606a6,2026-01-28T04:50:30.271Z,54,Trials,101,101_non-creaky.wav,https://benebular.github.io/pharylary/data/audio/101_non-creaky.wav,118.png,23.png,right,23.png,118.png,right,118.png,yes,392,Wired Headset,2026-01-28T04:50:30.271Z,,,,,,,,,,,,,,,,,,,,,,,,,,
65f0770588878297865a0cc4,65f0770588878297865a0cc4,2026-01-28T04:50:33.854Z,105,Trials,257,257_creaky.wav,https://benebular.github.io/pharylary/data/audio/257_creaky.wav,141.png,46.png,left,141.png,46.png,left,141.png,yes,452,Wireless hoco buds,2026-01-28T04:50:33.854Z,,,,,,,,,,,,,,,,,,,,,,,,,,
68d4239be163cb15b16606a6,68d4239be163cb15b16606a6,2026-01-28T04:50:34.323Z,55,Trials,59,59_non-creaky.wav,https://benebular.github.io/pharylary/data/audio/59_non-creaky.wav,64.png,159.png,right,159.png,64.png,right,64.png,yes,384,Wired Headset,2026-01-28T04:50:34.323Z,,,,,,,,,,,,,,,,,,,,,,,,,,
65f0770588878297865a0cc4,65f0770588878297865a0cc4,2026-01-28T04:50:37.376Z,106,Trials,99,99_non-creaky.wav,https://benebular.github.io/pharylary/data/audio/99_non-creaky.wav,115.png,20.png,left,115.png,20.png,left,115.png,yes,153,Wireless hoco buds,2026-01-28T04:50:37.376Z,,,,,,,,,,,,,,,,,,,,,,,,,,
68d4239be163cb15b16606a6,68d4239be163cb15b16606a6,2026-01-28T04:50:38.539Z,56,Trials,22,22_non-creaky.wav,https://benebular.github.io/pharylary/data/audio/22_non-creaky.wav,22.png,117.png,left,22.png,117.png,left,22.png,yes,530,Wired Headset,2026-01-28T04:50:38.539Z,,,,,,,,,,,,,,,,,,,,,,,,,,
65f0770588878297865a0cc4,65f0770588878297865a0cc4,2026-01-28T04:50:41.028Z,107,Trials,32,32_non-creaky.wav,https://benebular.github.io/pharylary/data/audio/32_non-creaky.wav,32.png,127.png,left,32.png,127.png,left,32.png,yes,546,Wireless hoco buds,2026-01-28T04:50:41.028Z,,,,,,,,,,,,,,,,,,,,,,,,,,
65f0770588878297865a0cc4,65f0770588878297865a0cc4,2026-01-28T04:50:45.116Z,108,Trials,285,285_creaky.wav,https://benebular.github.io/pharylary/data/audio/285_creaky.wav,179.png,84.png,right,84.png,179.png,right,179.png,yes,525,Wireless hoco buds,2026-01-28T04:50:45.116Z,,,,,,,,,,,,,,,,,,,,,,,,,,
65f0770588878297865a0cc4,65f0770588878297865a0cc4,2026-01-28T04:50:48.851Z,109,Trials,143,143_non-creaky.wav,https://benebular.github.io/pharylary/data/audio/143_non-creaky.wav,181.png,86.png,left,181.png,86.png,left,181.png,yes,440,Wireless hoco buds,2026-01-28T04:50:48.851Z,,,,,,,,,,,,,,,,,,,,,,,,,,
65f0770588878297865a0cc4,65f0770588878297865a0cc4,2026-01-28T04:50:52.563Z,110,Trials,264,264_creaky.wav,https://benebular.github.io/pharylary/data/audio/264_creaky.wav,149.png,54.png,left,149.png,54.png,left,149.png,yes,351,Wireless hoco buds,2026-01-28T04:50:52.563Z,,,,,,,,,,,,,,,,,,,,,,,,,,
65f0770588878297865a0cc4,65f0770588878297865a0cc4,2026-01-28T04:50:57.141Z,111,Trials,150,150_creaky.wav,https://benebular.github.io/pharylary/data/audio/150_creaky.wav,6.png,101.png,right,101.png,6.png,right,6.png,yes,1022,Wireless hoco buds,2026-01-28T04:50:57.141Z,,,,,,,,,,,,,,,,,,,,,,,,,,
65f0770588878297865a0cc4,65f0770588878297865a0cc4,2026-01-28T04:51:00.650Z,112,Trials,110,110_non-creaky.wav,https://benebular.github.io/pharylary/data/audio/110_non-creaky.wav,135.png,40.png,right,40.png,135.png,right,135.png,yes,319,Wireless hoco buds,2026-01-28T04:51:00.650Z,,,,,,,,,,,,,,,,,,,,,,,,,,
65f0770588878297865a0cc4,65f0770588878297865a0cc4,2026-01-28T04:51:06.804Z,,AttentionCheck,,,,,,,,,,,,,Wireless hoco buds,2026-01-28T04:51:06.804Z,,,,,,,,,,,,,,,,,,,,,,https://benebular.github.io/pharylary/experiment/audio_check/sane_b.wav,Sane,5,,
65f0770588878297865a0cc4,65f0770588878297865a0cc4,2026-01-28T04:51:10.603Z,113,Trials,211,211_creaky.wav,https://benebular.github.io/pharylary/data/audio/211_creaky.wav,74.png,169.png,right,169.png,74.png,right,74.png,yes,491,Wireless hoco buds,2026-01-28T04:51:10.603Z,,,,,,,,,,,,,,,,,,,,,,,,,,
65f0770588878297865a0cc4,65f0770588878297865a0cc4,2026-01-28T04:51:14.548Z,114,Trials,283,283_creaky.wav,https://benebular.github.io/pharylary/data/audio/283_creaky.wav,177.png,82.png,left,177.png,82.png,left,177.png,yes,516,Wireless hoco buds,2026-01-28T04:51:14.548Z,,,,,,,,,,,,,,,,,,,,,,,,,,
65f0770588878297865a0cc4,65f0770588878297865a0cc4,2026-01-28T04:51:18.486Z,115,Trials,101,101_non-creaky.wav,https://benebular.github.io/pharylary/data/audio/101_non-creaky.wav,118.png,23.png,right,23.png,118.png,right,118.png,yes,615,Wireless hoco buds,2026-01-28T04:51:18.486Z,,,,,,,,,,,,,,,,,,,,,,,,,,
65f0770588878297865a0cc4,65f0770588878297865a0cc4,2026-01-28T04:51:24.373Z,116,Trials,245,245_creaky.wav,https://benebular.github.io/pharylary/data/audio/245_creaky.wav,118.png,23.png,right,23.png,118.png,right,118.png,yes,451,Wireless hoco buds,2026-01-28T04:51:24.373Z,,,,,,,,,,,,,,,,,,,,,,,,,,
68d4239be163cb15b16606a6,68d4239be163cb15b16606a6,2026-01-28T04:51:31.559Z,,AttentionCheck,,,,,,,,,,,,,Wired Headset,2026-01-28T04:51:31.559Z,,,,,,,,,,,,,,,,,,,,,,https://benebular.github.io/pharylary/experiment/audio_check/faint_t_b.wav,Faint,3,,
68d4239be163cb15b16606a6,68d4239be163cb15b16606a6,2026-01-28T04:51:38.277Z,57,Trials,37,37_non-creaky.wav,https://benebular.github.io/pharylary/data/audio/37_non-creaky.wav,36.png,131.png,left,36.png,131.png,left,36.png,yes,348,Wired Headset,2026-01-28T04:51:38.277Z,,,,,,,,,,,,,,,,,,,,,,,,,,
68d4239be163cb15b16606a6,68d4239be163cb15b16606a6,2026-01-28T04:51:41.788Z,58,Trials,116,116_non-creaky.wav,https://benebular.github.io/pharylary/data/audio/116_non-creaky.wav,145.png,50.png,right,50.png,145.png,right,145.png,yes,39,Wired Headset,2026-01-28T04:51:41.788Z,,,,,,,,,,,,,,,,,,,,,,,,,,
68d4239be163cb15b16606a6,68d4239be163cb15b16606a6,2026-01-28T04:51:45.536Z,59,Trials,209,209_creaky.wav,https://benebular.github.io/pharylary/data/audio/209_creaky.wav,72.png,167.png,right,167.png,72.png,right,72.png,yes,327,Wired Headset,2026-01-28T04:51:45.536Z,,,,,,,,,,,,,,,,,,,,,,,,,,
68d4239be163cb15b16606a6,68d4239be163cb15b16606a6,2026-01-28T04:51:49.805Z,60,Trials,70,70_non-creaky.wav,https://benebular.github.io/pharylary/data/audio/70_non-creaky.wav,73.png,168.png,left,73.png,168.png,left,73.png,yes,956,Wired Headset,2026-01-28T04:51:49.805Z,,,,,,,,,,,,,,,,,,,,,,,,,,
68d4239be163cb15b16606a6,68d4239be163cb15b16606a6,2026-01-28T04:51:57.605Z,61,Trials,186,186_creaky.wav,https://benebular.github.io/pharylary/data/audio/186_creaky.wav,44.png,139.png,left,44.png,139.png,left,44.png,yes,4466,Wired Headset,2026-01-28T04:51:57.605Z,,,,,,,,,,,,,,,,,,,,,,,,,,
68d4239be163cb15b16606a6,68d4239be163cb15b16606a6,2026-01-28T04:52:02.134Z,62,Trials,90,90_non-creaky.wav,https://benebular.github.io/pharylary/data/audio/90_non-creaky.wav,99.png,4.png,left,99.png,4.png,left,99.png,yes,805,Wired Headset,2026-01-28T04:52:02.134Z,,,,,,,,,,,,,,,,,,,,,,,,,,
68d4239be163cb15b16606a6,68d4239be163cb15b16606a6,2026-01-28T04:52:06.128Z,63,Trials,214,214_creaky.wav,https://benebular.github.io/pharylary/data/audio/214_creaky.wav,73.png,168.png,right,168.png,73.png,right,73.png,yes,529,Wired Headset,2026-01-28T04:52:06.128Z,,,,,,,,,,,,,,,,,,,,,,,,,,
68d4239be163cb15b16606a6,68d4239be163cb15b16606a6,2026-01-28T04:52:10.831Z,64,Trials,226,226_creaky.wav,https://benebular.github.io/pharylary/data/audio/226_creaky.wav,82.png,177.png,right,177.png,82.png,right,82.png,yes,802,Wired Headset,2026-01-28T04:52:10.831Z,,,,,,,,,,,,,,,,,,,,,,,,,,
68d4239be163cb15b16606a6,68d4239be163cb15b16606a6,2026-01-28T04:52:14.959Z,65,Trials,2,2_non-creaky.wav,https://benebular.github.io/pharylary/data/audio/2_non-creaky.wav,1.png,96.png,right,96.png,1.png,right,1.png,yes,640,Wired Headset,2026-01-28T04:52:14.959Z,,,,,,,,,,,,,,,,,,,,,,,,,,
68d4239be163cb15b16606a6,68d4239be163cb15b16606a6,2026-01-28T04:52:18.825Z,66,Trials,64,64_non-creaky.wav,https://benebular.github.io/pharylary/data/audio/64_non-creaky.wav,70.png,165.png,left,70.png,165.png,left,70.png,yes,346,Wired Headset,2026-01-28T04:52:18.825Z,,,,,,,,,,,,,,,,,,,,,,,,,,
68d4239be163cb15b16606a6,68d4239be163cb15b16606a6,2026-01-28T04:52:24.603Z,67,Trials,40,40_non-creaky.wav,https://benebular.github.io/pharylary/data/audio/40_non-creaky.wav,42.png,137.png,right,137.png,42.png,left,137.png,no,2214,Wired Headset,2026-01-28T04:52:24.603Z,,,,,,,,,,,,,,,,,,,,,,,,,,
68d4239be163cb15b16606a6,68d4239be163cb15b16606a6,2026-01-28T04:52:31.972Z,68,Trials,154,154_creaky.wav,https://benebular.github.io/pharylary/data/audio/154_creaky.wav,10.png,104.png,left,10.png,104.png,left,10.png,yes,563,Wired Headset,2026-01-28T04:52:31.972Z,,,,,,,,,,,,,,,,,,,,,,,,,,
65f0770588878297865a0cc4,65f0770588878297865a0cc4,2026-01-28T04:52:34.589Z,117,Trials,23,23_non-creaky.wav,https://benebular.github.io/pharylary/data/audio/23_non-creaky.wav,23.png,118.png,right,118.png,23.png,right,23.png,yes,37,Wireless hoco buds,2026-01-28T04:52:34.589Z,,,,,,,,,,,,,,,,,,,,,,,,,,
65f0770588878297865a0cc4,65f0770588878297865a0cc4,2026-01-28T04:52:38.936Z,118,Trials,231,231_creaky.wav,https://benebular.github.io/pharylary/data/audio/231_creaky.wav,87.png,182.png,left,87.png,182.png,left,87.png,yes,679,Wireless hoco buds,2026-01-28T04:52:38.936Z,,,,,,,,,,,,,,,,,,,,,,,,,,
68d4239be163cb15b16606a6,68d4239be163cb15b16606a6,2026-01-28T04:52:42.931Z,69,Trials,148,148_creaky.wav,https://benebular.github.io/pharylary/data/audio/148_creaky.wav,4.png,99.png,left,4.png,99.png,left,4.png,yes,112,Wired Headset,2026-01-28T04:52:42.931Z,,,,,,,,,,,,,,,,,,,,,,,,,,
68d4239be163cb15b16606a6,68d4239be163cb15b16606a6,2026-01-28T04:52:47.530Z,70,Trials,262,262_creaky.wav,https://benebular.github.io/pharylary/data/audio/262_creaky.wav,147.png,52.png,right,52.png,147.png,right,147.png,yes,621,Wired Headset,2026-01-28T04:52:47.530Z,,,,,,,,,,,,,,,,,,,,,,,,,,
65f0770588878297865a0cc4,65f0770588878297865a0cc4,2026-01-28T04:52:49.021Z,119,Trials,135,135_non-creaky.wav,https://benebular.github.io/pharylary/data/audio/135_non-creaky.wav,168.png,73.png,right,73.png,168.png,right,168.png,yes,1690,Wireless hoco buds,2026-01-28T04:52:49.021Z,,,,,,,,,,,,,,,,,,,,,,,,,,
68d4239be163cb15b16606a6,68d4239be163cb15b16606a6,2026-01-28T04:52:52.447Z,71,Trials,193,193_creaky.wav,https://benebular.github.io/pharylary/data/audio/193_creaky.wav,52.png,147.png,left,52.png,147.png,left,52.png,yes,478,Wired Headset,2026-01-28T04:52:52.447Z,,,,,,,,,,,,,,,,,,,,,,,,,,
65f0770588878297865a0cc4,65f0770588878297865a0cc4,2026-01-28T04:52:53.375Z,120,Trials,226,226_creaky.wav,https://benebular.github.io/pharylary/data/audio/226_creaky.wav,82.png,177.png,right,177.png,82.png,right,82.png,yes,1164,Wireless hoco buds,2026-01-28T04:52:53.375Z,,,,,,,,,,,,,,,,,,,,,,,,,,
65f0770588878297865a0cc4,65f0770588878297865a0cc4,2026-01-28T04:52:57.387Z,121,Trials,30,30_non-creaky.wav,https://benebular.github.io/pharylary/data/audio/30_non-creaky.wav,30.png,125.png,left,30.png,125.png,left,30.png,yes,676,Wireless hoco buds,2026-01-28T04:52:57.387Z,,,,,,,,,,,,,,,,,,,,,,,,,,
68d4239be163cb15b16606a6,68d4239be163cb15b16606a6,2026-01-28T04:52:56.966Z,72,Trials,97,97_non-creaky.wav,https://benebular.github.io/pharylary/data/audio/97_non-creaky.wav,112.png,16.png,right,16.png,112.png,right,112.png,yes,718,Wired Headset,2026-01-28T04:52:56.966Z,,,,,,,,,,,,,,,,,,,,,,,,,,
65f0770588878297865a0cc4,65f0770588878297865a0cc4,2026-01-28T04:53:01.290Z,122,Trials,204,204_creaky.wav,https://benebular.github.io/pharylary/data/audio/204_creaky.wav,65.png,160.png,right,160.png,65.png,right,65.png,yes,329,Wireless hoco buds,2026-01-28T04:53:01.290Z,,,,,,,,,,,,,,,,,,,,,,,,,,
65f0770588878297865a0cc4,65f0770588878297865a0cc4,2026-01-28T04:53:05.227Z,123,Trials,75,75_non-creaky.wav,https://benebular.github.io/pharylary/data/audio/75_non-creaky.wav,83.png,178.png,right,178.png,83.png,right,83.png,yes,604,Wireless hoco buds,2026-01-28T04:53:05.227Z,,,,,,,,,,,,,,,,,,,,,,,,,,
65f0770588878297865a0cc4,65f0770588878297865a0cc4,2026-01-28T04:53:09.411Z,124,Trials,265,265_creaky.wav,https://benebular.github.io/pharylary/data/audio/265_creaky.wav,150.png,55.png,left,150.png,55.png,left,150.png,yes,398,Wireless hoco buds,2026-01-28T04:53:09.411Z,,,,,,,,,,,,,,,,,,,,,,,,,,
65f0770588878297865a0cc4,65f0770588878297865a0cc4,2026-01-28T04:53:13.242Z,125,Trials,91,91_non-creaky.wav,https://benebular.github.io/pharylary/data/audio/91_non-creaky.wav,101.png,6.png,right,6.png,101.png,right,101.png,yes,451,Wireless hoco buds,2026-01-28T04:53:13.242Z,,,,,,,,,,,,,,,,,,,,,,,,,,
65f0770588878297865a0cc4,65f0770588878297865a0cc4,2026-01-28T04:53:17.685Z,126,Trials,140,140_non-creaky.wav,https://benebular.github.io/pharylary/data/audio/140_non-creaky.wav,178.png,83.png,left,178.png,83.png,left,178.png,yes,1224,Wireless hoco buds,2026-01-28T04:53:17.685Z,,,,,,,,,,,,,,,,,,,,,,,,,,
65f0770588878297865a0cc4,65f0770588878297865a0cc4,2026-01-28T04:53:21.772Z,127,Trials,56,56_non-creaky.wav,https://benebular.github.io/pharylary/data/audio/56_non-creaky.wav,61.png,156.png,right,156.png,61.png,right,61.png,yes,531,Wireless hoco buds,2026-01-28T04:53:21.772Z,,,,,,,,,,,,,,,,,,,,,,,,,,
68d4239be163cb15b16606a6,68d4239be163cb15b16606a6,2026-01-28T04:53:21.288Z,73,Trials,139,139_non-creaky.wav,https://benebular.github.io/pharylary/data/audio/139_non-creaky.wav,177.png,82.png,left,177.png,82.png,left,177.png,yes,612,Wired Headset,2026-01-28T04:53:21.288Z,,,,,,,,,,,,,,,,,,,,,,,,,,
65f0770588878297865a0cc4,65f0770588878297865a0cc4,2026-01-28T04:53:25.448Z,128,Trials,210,210_creaky.wav,https://benebular.github.io/pharylary/data/audio/210_creaky.wav,73.png,168.png,right,168.png,73.png,right,73.png,yes,456,Wireless hoco buds,2026-01-28T04:53:25.448Z,,,,,,,,,,,,,,,,,,,,,,,,,,
68d4239be163cb15b16606a6,68d4239be163cb15b16606a6,2026-01-28T04:53:26.077Z,74,Trials,215,215_creaky.wav,https://benebular.github.io/pharylary/data/audio/215_creaky.wav,74.png,169.png,right,169.png,74.png,right,74.png,yes,440,Wired Headset,2026-01-28T04:53:26.077Z,,,,,,,,,,,,,,,,,,,,,,,,,,
65f0770588878297865a0cc4,65f0770588878297865a0cc4,2026-01-28T04:53:28.944Z,129,Trials,28,28_non-creaky.wav,https://benebular.github.io/pharylary/data/audio/28_non-creaky.wav,28.png,123.png,right,123.png,28.png,right,28.png,yes,310,Wireless hoco buds,2026-01-28T04:53:28.944Z,,,,,,,,,,,,,,,,,,,,,,,,,,
68d4239be163cb15b16606a6,68d4239be163cb15b16606a6,2026-01-28T04:53:30.206Z,75,Trials,78,78_non-creaky.wav,https://benebular.github.io/pharylary/data/audio/78_non-creaky.wav,86.png,181.png,left,86.png,181.png,left,86.png,yes,423,Wired Headset,2026-01-28T04:53:30.206Z,,,,,,,,,,,,,,,,,,,,,,,,,,
68d4239be163cb15b16606a6,68d4239be163cb15b16606a6,2026-01-28T04:53:34.030Z,76,Trials,199,199_creaky.wav,https://benebular.github.io/pharylary/data/audio/199_creaky.wav,60.png,155.png,left,60.png,155.png,left,60.png,yes,428,Wired Headset,2026-01-28T04:53:34.030Z,,,,,,,,,,,,,,,,,,,,,,,,,,
65f0770588878297865a0cc4,65f0770588878297865a0cc4,2026-01-28T04:53:35.326Z,130,Trials,214,214_creaky.wav,https://benebular.github.io/pharylary/data/audio/214_creaky.wav,73.png,168.png,right,168.png,73.png,left,168.png,no,2806,Wireless hoco buds,2026-01-28T04:53:35.326Z,,,,,,,,,,,,,,,,,,,,,,,,,,
68d4239be163cb15b16606a6,68d4239be163cb15b16606a6,2026-01-28T04:53:38.187Z,77,Trials,105,105_non-creaky.wav,https://benebular.github.io/pharylary/data/audio/105_non-creaky.wav,123.png,28.png,left,123.png,28.png,left,123.png,yes,345,Wired Headset,2026-01-28T04:53:38.187Z,,,,,,,,,,,,,,,,,,,,,,,,,,
65f0770588878297865a0cc4,65f0770588878297865a0cc4,2026-01-28T04:53:39.355Z,131,Trials,274,274_creaky.wav,https://benebular.github.io/pharylary/data/audio/274_creaky.wav,162.png,67.png,right,67.png,162.png,right,162.png,yes,303,Wireless hoco buds,2026-01-28T04:53:39.355Z,,,,,,,,,,,,,,,,,,,,,,,,,,
65f0770588878297865a0cc4,65f0770588878297865a0cc4,2026-01-28T04:53:43.300Z,132,Trials,241,241_creaky.wav,https://benebular.github.io/pharylary/data/audio/241_creaky.wav,112.png,16.png,left,112.png,16.png,left,112.png,yes,438,Wireless hoco buds,2026-01-28T04:53:43.300Z,,,,,,,,,,,,,,,,,,,,,,,,,,
68d4239be163cb15b16606a6,68d4239be163cb15b16606a6,2026-01-28T04:53:43.212Z,78,Trials,283,283_creaky.wav,https://benebular.github.io/pharylary/data/audio/283_creaky.wav,177.png,82.png,left,177.png,82.png,left,177.png,yes,1350,Wired Headset,2026-01-28T04:53:43.212Z,,,,,,,,,,,,,,,,,,,,,,,,,,
65f0770588878297865a0cc4,65f0770588878297865a0cc4,2026-01-28T04:53:47.077Z,133,Trials,60,60_non-creaky.wav,https://benebular.github.io/pharylary/data/audio/60_non-creaky.wav,65.png,160.png,right,160.png,65.png,right,65.png,yes,447,Wireless hoco buds,2026-01-28T04:53:47.077Z,,,,,,,,,,,,,,,,,,,,,,,,,,
68d4239be163cb15b16606a6,68d4239be163cb15b16606a6,2026-01-28T04:53:48.198Z,79,Trials,175,175_creaky.wav,https://benebular.github.io/pharylary/data/audio/175_creaky.wav,30.png,125.png,left,30.png,125.png,left,30.png,yes,1285,Wired Headset,2026-01-28T04:53:48.198Z,,,,,,,,,,,,,,,,,,,,,,,,,,
65f0770588878297865a0cc4,65f0770588878297865a0cc4,2026-01-28T04:53:51.031Z,134,Trials,92,92_non-creaky.wav,https://benebular.github.io/pharylary/data/audio/92_non-creaky.wav,101.png,7.png,right,7.png,101.png,right,101.png,yes,881,Wireless hoco buds,2026-01-28T04:53:51.031Z,,,,,,,,,,,,,,,,,,,,,,,,,,
68d4239be163cb15b16606a6,68d4239be163cb15b16606a6,2026-01-28T04:53:52.260Z,80,Trials,144,144_non-creaky.wav,https://benebular.github.io/pharylary/data/audio/144_non-creaky.wav,182.png,87.png,right,87.png,182.png,right,182.png,yes,527,Wired Headset,2026-01-28T04:53:52.260Z,,,,,,,,,,,,,,,,,,,,,,,,,,
65f0770588878297865a0cc4,65f0770588878297865a0cc4,2026-01-28T04:53:54.668Z,135,Trials,139,139_non-creaky.wav,https://benebular.github.io/pharylary/data/audio/139_non-creaky.wav,177.png,82.png,left,177.png,82.png,left,177.png,yes,663,Wireless hoco buds,2026-01-28T04:53:54.668Z,,,,,,,,,,,,,,,,,,,,,,,,,,
68d4239be163cb15b16606a6,68d4239be163cb15b16606a6,2026-01-28T04:53:56.720Z,81,Trials,25,25_non-creaky.wav,https://benebular.github.io/pharylary/data/audio/25_non-creaky.wav,25.png,120.png,left,25.png,120.png,left,25.png,yes,758,Wired Headset,2026-01-28T04:53:56.720Z,,,,,,,,,,,,,,,,,,,,,,,,,,
65f0770588878297865a0cc4,65f0770588878297865a0cc4,2026-01-28T04:53:59.061Z,136,Trials,228,228_creaky.wav,https://benebular.github.io/pharylary/data/audio/228_creaky.wav,84.png,179.png,left,84.png,179.png,left,84.png,yes,1009,Wireless hoco buds,2026-01-28T04:53:59.061Z,,,,,,,,,,,,,,,,,,,,,,,,,,
68d4239be163cb15b16606a6,68d4239be163cb15b16606a6,2026-01-28T04:54:01.183Z,82,Trials,96,96_non-creaky.wav,https://benebular.github.io/pharylary/data/audio/96_non-creaky.wav,109.png,14.png,left,109.png,14.png,left,109.png,yes,641,Wired Headset,2026-01-28T04:54:01.183Z,,,,,,,,,,,,,,,,,,,,,,,,,,
65f0770588878297865a0cc4,65f0770588878297865a0cc4,2026-01-28T04:54:02.121Z,137,Trials,113,113_non-creaky.wav,https://benebular.github.io/pharylary/data/audio/113_non-creaky.wav,141.png,46.png,left,141.png,46.png,left,141.png,yes,21,Wireless hoco buds,2026-01-28T04:54:02.121Z,,,,,,,,,,,,,,,,,,,,,,,,,,
65f0770588878297865a0cc4,65f0770588878297865a0cc4,2026-01-28T04:54:05.436Z,138,Trials,236,236_creaky.wav,https://benebular.github.io/pharylary/data/audio/236_creaky.wav,101.png,7.png,left,101.png,7.png,left,101.png,yes,355,Wireless hoco buds,2026-01-28T04:54:05.436Z,,,,,,,,,,,,,,,,,,,,,,,,,,
65f0770588878297865a0cc4,65f0770588878297865a0cc4,2026-01-28T04:54:09.381Z,139,Trials,103,103_non-creaky.wav,https://benebular.github.io/pharylary/data/audio/103_non-creaky.wav,120.png,25.png,left,120.png,25.png,left,120.png,yes,659,Wireless hoco buds,2026-01-28T04:54:09.381Z,,,,,,,,,,,,,,,,,,,,,,,,,,
68d4239be163cb15b16606a6,68d4239be163cb15b16606a6,2026-01-28T04:54:09.641Z,84,Trials,124,124_non-creaky.wav,https://benebular.github.io/pharylary/data/audio/124_non-creaky.wav,155.png,60.png,right,60.png,155.png,right,155.png,yes,729,Wired Headset,2026-01-28T04:54:09.641Z,,,,,,,,,,,,,,,,,,,,,,,,,,
68d4239be163cb15b16606a6,68d4239be163cb15b16606a6,2026-01-28T04:54:05.690Z,83,Trials,250,250_creaky.wav,https://benebular.github.io/pharylary/data/audio/250_creaky.wav,125.png,30.png,left,125.png,30.png,left,125.png,yes,888,Wired Headset,2026-01-28T04:54:05.690Z,,,,,,,,,,,,,,,,,,,,,,,,,,
68d4239be163cb15b16606a6,68d4239be163cb15b16606a6,2026-01-28T04:54:57.582Z,,AttentionCheck,,,,,,,,,,,,,Wired Headset,2026-01-28T04:54:57.582Z,,,,,,,,,,,,,,,,,,,,,,https://benebular.github.io/pharylary/experiment/audio_check/bean_b.wav,Bean,4,,
65f0770588878297865a0cc4,65f0770588878297865a0cc4,2026-01-28T04:55:01.276Z,140,Trials,54,54_non-creaky.wav,https://benebular.github.io/pharylary/data/audio/54_non-creaky.wav,57.png,152.png,left,57.png,152.png,right,152.png,no,464,Wireless hoco buds,2026-01-28T04:55:01.276Z,,,,,,,,,,,,,,,,,,,,,,,,,,
68d4239be163cb15b16606a6,68d4239be163cb15b16606a6,2026-01-28T04:55:03.371Z,85,Trials,159,159_creaky.wav,https://benebular.github.io/pharylary/data/audio/159_creaky.wav,14.png,109.png,left,14.png,109.png,left,14.png,yes,781,Wired Headset,2026-01-28T04:55:03.371Z,,,,,,,,,,,,,,,,,,,,,,,,,,
68d4239be163cb15b16606a6,68d4239be163cb15b16606a6,2026-01-28T04:55:07.324Z,86,Trials,79,79_non-creaky.wav,https://benebular.github.io/pharylary/data/audio/79_non-creaky.wav,87.png,182.png,right,182.png,87.png,right,87.png,yes,404,Wired Headset,2026-01-28T04:55:07.324Z,,,,,,,,,,,,,,,,,,,,,,,,,,
68d4239be163cb15b16606a6,68d4239be163cb15b16606a6,2026-01-28T04:55:11.430Z,87,Trials,81,81_non-creaky.wav,https://benebular.github.io/pharylary/data/audio/81_non-creaky.wav,81.png,176.png,left,81.png,176.png,left,81.png,yes,640,Wired Headset,2026-01-28T04:55:11.430Z,,,,,,,,,,,,,,,,,,,,,,,,,,
65f0770588878297865a0cc4,65f0770588878297865a0cc4,2026-01-28T04:55:12.619Z,,AttentionCheck,,,,,,,,,,,,,Wireless hoco buds,2026-01-28T04:55:12.619Z,,,,,,,,,,,,,,,,,,,,,,https://benebular.github.io/pharylary/experiment/audio_check/feign_b.wav,Feign,6,,
68d4239be163cb15b16606a6,68d4239be163cb15b16606a6,2026-01-28T04:55:15.238Z,88,Trials,117,117_non-creaky.wav,https://benebular.github.io/pharylary/data/audio/117_non-creaky.wav,146.png,51.png,right,51.png,146.png,right,146.png,yes,288,Wired Headset,2026-01-28T04:55:15.238Z,,,,,,,,,,,,,,,,,,,,,,,,,,
65f0770588878297865a0cc4,65f0770588878297865a0cc4,2026-01-28T04:55:15.997Z,141,Trials,33,33_non-creaky.wav,https://benebular.github.io/pharylary/data/audio/33_non-creaky.wav,32.png,127.png,right,127.png,32.png,right,32.png,yes,131,Wireless hoco buds,2026-01-28T04:55:15.997Z,,,,,,,,,,,,,,,,,,,,,,,,,,
65f0770588878297865a0cc4,65f0770588878297865a0cc4,2026-01-28T04:55:19.501Z,142,Trials,232,232_creaky.wav,https://benebular.github.io/pharylary/data/audio/232_creaky.wav,96.png,1.png,right,1.png,96.png,right,96.png,yes,566,Wireless hoco buds,2026-01-28T04:55:19.501Z,,,,,,,,,,,,,,,,,,,,,,,,,,
68d4239be163cb15b16606a6,68d4239be163cb15b16606a6,2026-01-28T04:55:19.248Z,89,Trials,100,100_non-creaky.wav,https://benebular.github.io/pharylary/data/audio/100_non-creaky.wav,117.png,22.png,left,117.png,22.png,left,117.png,yes,428,Wired Headset,2026-01-28T04:55:19.248Z,,,,,,,,,,,,,,,,,,,,,,,,,,
65f0770588878297865a0cc4,65f0770588878297865a0cc4,2026-01-28T04:55:23.483Z,143,Trials,67,67_non-creaky.wav,https://benebular.github.io/pharylary/data/audio/67_non-creaky.wav,74.png,169.png,right,169.png,74.png,right,74.png,yes,421,Wireless hoco buds,2026-01-28T04:55:23.483Z,,,,,,,,,,,,,,,,,,,,,,,,,,
68d4239be163cb15b16606a6,68d4239be163cb15b16606a6,2026-01-28T04:55:23.330Z,90,Trials,87,87_non-creaky.wav,https://benebular.github.io/pharylary/data/audio/87_non-creaky.wav,87.png,182.png,left,87.png,182.png,left,87.png,yes,340,Wired Headset,2026-01-28T04:55:23.330Z,,,,,,,,,,,,,,,,,,,,,,,,,,
68d4239be163cb15b16606a6,68d4239be163cb15b16606a6,2026-01-28T04:55:30.497Z,91,Trials,18,18_non-creaky.wav,https://benebular.github.io/pharylary/data/audio/18_non-creaky.wav,18.png,113.png,left,18.png,113.png,right,113.png,no,3697,Wired Headset,2026-01-28T04:55:30.497Z,,,,,,,,,,,,,,,,,,,,,,,,,,
65f0770588878297865a0cc4,65f0770588878297865a0cc4,2026-01-28T04:55:31.830Z,145,Trials,227,227_creaky.wav,https://benebular.github.io/pharylary/data/audio/227_creaky.wav,83.png,178.png,left,83.png,178.png,left,83.png,yes,707,Wireless hoco buds,2026-01-28T04:55:31.830Z,,,,,,,,,,,,,,,,,,,,,,,,,,
65f0770588878297865a0cc4,65f0770588878297865a0cc4,2026-01-28T04:55:35.382Z,146,Trials,247,247_creaky.wav,https://benebular.github.io/pharylary/data/audio/247_creaky.wav,120.png,25.png,left,120.png,25.png,left,120.png,yes,514,Wireless hoco buds,2026-01-28T04:55:35.382Z,,,,,,,,,,,,,,,,,,,,,,,,,,
65f0770588878297865a0cc4,65f0770588878297865a0cc4,2026-01-28T04:55:27.261Z,144,Trials,114,114_non-creaky.wav,https://benebular.github.io/pharylary/data/audio/114_non-creaky.wav,142.png,47.png,left,142.png,47.png,left,142.png,yes,640,Wireless hoco buds,2026-01-28T04:55:27.261Z,,,,,,,,,,,,,,,,,,,,,,,,,,
65f0770588878297865a0cc4,65f0770588878297865a0cc4,2026-01-28T04:55:39.012Z,147,Trials,70,70_non-creaky.wav,https://benebular.github.io/pharylary/data/audio/70_non-creaky.wav,73.png,168.png,right,168.png,73.png,right,73.png,yes,531,Wireless hoco buds,2026-01-28T04:55:39.012Z,,,,,,,,,,,,,,,,,,,,,,,,,,
68d4239be163cb15b16606a6,68d4239be163cb15b16606a6,2026-01-28T04:55:38.471Z,92,Trials,10,10_non-creaky.wav,https://benebular.github.io/pharylary/data/audio/10_non-creaky.wav,10.png,104.png,right,104.png,10.png,right,10.png,yes,421,Wired Headset,2026-01-28T04:55:38.471Z,,,,,,,,,,,,,,,,,,,,,,,,,,
68d4239be163cb15b16606a6,68d4239be163cb15b16606a6,2026-01-28T04:55:42.861Z,93,Trials,152,152_creaky.wav,https://benebular.github.io/pharylary/data/audio/152_creaky.wav,6.png,101.png,left,6.png,101.png,left,6.png,yes,461,Wired Headset,2026-01-28T04:55:42.861Z,,,,,,,,,,,,,,,,,,,,,,,,,,
65f0770588878297865a0cc4,65f0770588878297865a0cc4,2026-01-28T04:55:43.314Z,148,Trials,86,86_non-creaky.wav,https://benebular.github.io/pharylary/data/audio/86_non-creaky.wav,86.png,181.png,right,181.png,86.png,right,86.png,yes,1134,Wireless hoco buds,2026-01-28T04:55:43.314Z,,,,,,,,,,,,,,,,,,,,,,,,,,
65f0770588878297865a0cc4,65f0770588878297865a0cc4,2026-01-28T04:55:47.410Z,149,Trials,207,207_creaky.wav,https://benebular.github.io/pharylary/data/audio/207_creaky.wav,69.png,164.png,left,69.png,164.png,left,69.png,yes,466,Wireless hoco buds,2026-01-28T04:55:47.410Z,,,,,,,,,,,,,,,,,,,,,,,,,,
68d4239be163cb15b16606a6,68d4239be163cb15b16606a6,2026-01-28T04:55:47.523Z,94,Trials,84,84_non-creaky.wav,https://benebular.github.io/pharylary/data/audio/84_non-creaky.wav,84.png,179.png,right,179.png,84.png,right,84.png,yes,643,Wired Headset,2026-01-28T04:55:47.523Z,,,,,,,,,,,,,,,,,,,,,,,,,,
65f0770588878297865a0cc4,65f0770588878297865a0cc4,2026-01-28T04:55:51.278Z,150,Trials,122,122_non-creaky.wav,https://benebular.github.io/pharylary/data/audio/122_non-creaky.wav,151.png,56.png,left,151.png,56.png,left,151.png,yes,523,Wireless hoco buds,2026-01-28T04:55:51.278Z,,,,,,,,,,,,,,,,,,,,,,,,,,
68d4239be163cb15b16606a6,68d4239be163cb15b16606a6,2026-01-28T04:55:52.050Z,95,Trials,126,126_non-creaky.wav,https://benebular.github.io/pharylary/data/audio/126_non-creaky.wav,157.png,62.png,right,62.png,157.png,right,157.png,yes,1160,Wired Headset,2026-01-28T04:55:52.050Z,,,,,,,,,,,,,,,,,,,,,,,,,,
65f0770588878297865a0cc4,65f0770588878297865a0cc4,2026-01-28T04:55:55.198Z,151,Trials,169,169_creaky.wav,https://benebular.github.io/pharylary/data/audio/169_creaky.wav,25.png,120.png,right,120.png,25.png,right,25.png,yes,768,Wireless hoco buds,2026-01-28T04:55:55.198Z,,,,,,,,,,,,,,,,,,,,,,,,,,
68d4239be163cb15b16606a6,68d4239be163cb15b16606a6,2026-01-28T04:55:56.000Z,96,Trials,232,232_creaky.wav,https://benebular.github.io/pharylary/data/audio/232_creaky.wav,96.png,1.png,right,1.png,96.png,right,96.png,yes,350,Wired Headset,2026-01-28T04:55:56.000Z,,,,,,,,,,,,,,,,,,,,,,,,,,
65f0770588878297865a0cc4,65f0770588878297865a0cc4,2026-01-28T04:55:59.077Z,152,Trials,80,80_non-creaky.wav,https://benebular.github.io/pharylary/data/audio/80_non-creaky.wav,80.png,175.png,left,80.png,175.png,left,80.png,yes,597,Wireless hoco buds,2026-01-28T04:55:59.077Z,,,,,,,,,,,,,,,,,,,,,,,,,,
68d4239be163cb15b16606a6,68d4239be163cb15b16606a6,2026-01-28T04:56:00.193Z,97,Trials,115,115_non-creaky.wav,https://benebular.github.io/pharylary/data/audio/115_non-creaky.wav,143.png,48.png,right,48.png,143.png,right,143.png,yes,603,Wired Headset,2026-01-28T04:56:00.193Z,,,,,,,,,,,,,,,,,,,,,,,,,,
65f0770588878297865a0cc4,65f0770588878297865a0cc4,2026-01-28T04:56:03.078Z,153,Trials,63,63_non-creaky.wav,https://benebular.github.io/pharylary/data/audio/63_non-creaky.wav,69.png,164.png,right,164.png,69.png,right,69.png,yes,397,Wireless hoco buds,2026-01-28T04:56:03.078Z,,,,,,,,,,,,,,,,,,,,,,,,,,
68d4239be163cb15b16606a6,68d4239be163cb15b16606a6,2026-01-28T04:56:04.728Z,98,Trials,267,267_creaky.wav,https://benebular.github.io/pharylary/data/audio/267_creaky.wav,152.png,57.png,right,57.png,152.png,right,152.png,yes,458,Wired Headset,2026-01-28T04:56:04.728Z,,,,,,,,,,,,,,,,,,,,,,,,,,
65f0770588878297865a0cc4,65f0770588878297865a0cc4,2026-01-28T04:56:06.664Z,154,Trials,43,43_non-creaky.wav,https://benebular.github.io/pharylary/data/audio/43_non-creaky.wav,44.png,139.png,left,44.png,139.png,left,44.png,yes,674,Wireless hoco buds,2026-01-28T04:56:06.664Z,,,,,,,,,,,,,,,,,,,,,,,,,,
68d4239be163cb15b16606a6,68d4239be163cb15b16606a6,2026-01-28T04:56:09.249Z,99,Trials,51,51_non-creaky.wav,https://benebular.github.io/pharylary/data/audio/51_non-creaky.wav,54.png,149.png,right,149.png,54.png,right,54.png,yes,449,Wired Headset,2026-01-28T04:56:09.249Z,,,,,,,,,,,,,,,,,,,,,,,,,,
65f0770588878297865a0cc4,65f0770588878297865a0cc4,2026-01-28T04:56:10.794Z,155,Trials,83,83_non-creaky.wav,https://benebular.github.io/pharylary/data/audio/83_non-creaky.wav,83.png,178.png,left,83.png,178.png,left,83.png,yes,904,Wireless hoco buds,2026-01-28T04:56:10.794Z,,,,,,,,,,,,,,,,,,,,,,,,,,
65f0770588878297865a0cc4,65f0770588878297865a0cc4,2026-01-28T04:56:14.072Z,156,Trials,260,260_creaky.wav,https://benebular.github.io/pharylary/data/audio/260_creaky.wav,145.png,50.png,left,145.png,50.png,right,50.png,no,311,Wireless hoco buds,2026-01-28T04:56:14.072Z,,,,,,,,,,,,,,,,,,,,,,,,,,
68d4239be163cb15b16606a6,68d4239be163cb15b16606a6,2026-01-28T04:56:13.738Z,100,Trials,273,273_creaky.wav,https://benebular.github.io/pharylary/data/audio/273_creaky.wav,160.png,65.png,left,160.png,65.png,left,160.png,yes,538,Wired Headset,2026-01-28T04:56:13.738Z,,,,,,,,,,,,,,,,,,,,,,,,,,
65f0770588878297865a0cc4,65f0770588878297865a0cc4,2026-01-28T04:56:17.609Z,157,Trials,52,52_non-creaky.wav,https://benebular.github.io/pharylary/data/audio/52_non-creaky.wav,55.png,150.png,left,55.png,150.png,left,55.png,yes,377,Wireless hoco buds,2026-01-28T04:56:17.609Z,,,,,,,,,,,,,,,,,,,,,,,,,,
65f0770588878297865a0cc4,65f0770588878297865a0cc4,2026-01-28T04:56:21.104Z,158,Trials,127,127_non-creaky.wav,https://benebular.github.io/pharylary/data/audio/127_non-creaky.wav,158.png,63.png,left,158.png,63.png,left,158.png,yes,353,Wireless hoco buds,2026-01-28T04:56:21.104Z,,,,,,,,,,,,,,,,,,,,,,,,,,
68d4239be163cb15b16606a6,68d4239be163cb15b16606a6,2026-01-28T04:56:19.374Z,101,Trials,150,150_creaky.wav,https://benebular.github.io/pharylary/data/audio/150_creaky.wav,6.png,101.png,right,101.png,6.png,right,6.png,yes,1524,Wired Headset,2026-01-28T04:56:19.374Z,,,,,,,,,,,,,,,,,,,,,,,,,,
65f0770588878297865a0cc4,65f0770588878297865a0cc4,2026-01-28T04:56:24.733Z,159,Trials,142,142_non-creaky.wav,https://benebular.github.io/pharylary/data/audio/142_non-creaky.wav,180.png,85.png,left,180.png,85.png,left,180.png,yes,463,Wireless hoco buds,2026-01-28T04:56:24.733Z,,,,,,,,,,,,,,,,,,,,,,,,,,
68d4239be163cb15b16606a6,68d4239be163cb15b16606a6,2026-01-28T04:56:25.240Z,102,Trials,236,236_creaky.wav,https://benebular.github.io/pharylary/data/audio/236_creaky.wav,101.png,7.png,left,101.png,7.png,left,101.png,yes,2330,Wired Headset,2026-01-28T04:56:25.240Z,,,,,,,,,,,,,,,,,,,,,,,,,,
65f0770588878297865a0cc4,65f0770588878297865a0cc4,2026-01-28T04:56:28.720Z,160,Trials,19,19_non-creaky.wav,https://benebular.github.io/pharylary/data/audio/19_non-creaky.wav,18.png,113.png,left,18.png,113.png,left,18.png,yes,935,Wireless hoco buds,2026-01-28T04:56:28.720Z,,,,,,,,,,,,,,,,,,,,,,,,,,
68d4239be163cb15b16606a6,68d4239be163cb15b16606a6,2026-01-28T04:56:29.677Z,103,Trials,13,13_non-creaky.wav,https://benebular.github.io/pharylary/data/audio/13_non-creaky.wav,12.png,107.png,right,107.png,12.png,right,12.png,yes,467,Wired Headset,2026-01-28T04:56:29.677Z,,,,,,,,,,,,,,,,,,,,,,,,,,
65f0770588878297865a0cc4,65f0770588878297865a0cc4,2026-01-28T04:56:32.456Z,161,Trials,177,177_creaky.wav,https://benebular.github.io/pharylary/data/audio/177_creaky.wav,32.png,127.png,right,127.png,32.png,right,32.png,yes,765,Wireless hoco buds,2026-01-28T04:56:32.456Z,,,,,,,,,,,,,,,,,,,,,,,,,,
68d4239be163cb15b16606a6,68d4239be163cb15b16606a6,2026-01-28T04:56:35.511Z,104,Trials,240,240_creaky.wav,https://benebular.github.io/pharylary/data/audio/240_creaky.wav,109.png,14.png,right,14.png,109.png,right,109.png,yes,2251,Wired Headset,2026-01-28T04:56:35.511Z,,,,,,,,,,,,,,,,,,,,,,,,,,
65f0770588878297865a0cc4,65f0770588878297865a0cc4,2026-01-28T04:56:36.368Z,162,Trials,239,239_creaky.wav,https://benebular.github.io/pharylary/data/audio/239_creaky.wav,107.png,12.png,left,107.png,12.png,left,107.png,yes,406,Wireless hoco buds,2026-01-28T04:56:36.368Z,,,,,,,,,,,,,,,,,,,,,,,,,,
68d4239be163cb15b16606a6,68d4239be163cb15b16606a6,2026-01-28T04:56:39.907Z,105,Trials,120,120_non-creaky.wav,https://benebular.github.io/pharylary/data/audio/120_non-creaky.wav,149.png,54.png,right,54.png,149.png,right,149.png,yes,447,Wired Headset,2026-01-28T04:56:39.907Z,,,,,,,,,,,,,,,,,,,,,,,,,,
65f0770588878297865a0cc4,65f0770588878297865a0cc4,2026-01-28T04:56:40.504Z,163,Trials,35,35_non-creaky.wav,https://benebular.github.io/pharylary/data/audio/35_non-creaky.wav,34.png,129.png,right,129.png,34.png,right,34.png,yes,464,Wireless hoco buds,2026-01-28T04:56:40.504Z,,,,,,,,,,,,,,,,,,,,,,,,,,
68d4239be163cb15b16606a6,68d4239be163cb15b16606a6,2026-01-28T04:56:43.678Z,106,Trials,114,114_non-creaky.wav,https://benebular.github.io/pharylary/data/audio/114_non-creaky.wav,142.png,47.png,left,142.png,47.png,left,142.png,yes,458,Wired Headset,2026-01-28T04:56:43.678Z,,,,,,,,,,,,,,,,,,,,,,,,,,
65f0770588878297865a0cc4,65f0770588878297865a0cc4,2026-01-28T04:56:44.298Z,164,Trials,162,162_creaky.wav,https://benebular.github.io/pharylary/data/audio/162_creaky.wav,18.png,113.png,left,18.png,113.png,left,18.png,yes,387,Wireless hoco buds,2026-01-28T04:56:44.298Z,,,,,,,,,,,,,,,,,,,,,,,,,,
65f0770588878297865a0cc4,65f0770588878297865a0cc4,2026-01-28T04:56:48.460Z,165,Trials,132,132_non-creaky.wav,https://benebular.github.io/pharylary/data/audio/132_non-creaky.wav,164.png,69.png,right,69.png,164.png,right,164.png,yes,528,Wireless hoco buds,2026-01-28T04:56:48.460Z,,,,,,,,,,,,,,,,,,,,,,,,,,
68d4239be163cb15b16606a6,68d4239be163cb15b16606a6,2026-01-28T04:56:48.491Z,107,Trials,108,108_non-creaky.wav,https://benebular.github.io/pharylary/data/audio/108_non-creaky.wav,129.png,34.png,right,34.png,129.png,right,129.png,yes,1111,Wired Headset,2026-01-28T04:56:48.491Z,,,,,,,,,,,,,,,,,,,,,,,,,,
65f0770588878297865a0cc4,65f0770588878297865a0cc4,2026-01-28T04:56:52.080Z,166,Trials,15,15_non-creaky.wav,https://benebular.github.io/pharylary/data/audio/15_non-creaky.wav,14.png,109.png,left,14.png,109.png,left,14.png,yes,559,Wireless hoco buds,2026-01-28T04:56:52.080Z,,,,,,,,,,,,,,,,,,,,,,,,,,
68d4239be163cb15b16606a6,68d4239be163cb15b16606a6,2026-01-28T04:56:52.095Z,108,Trials,49,49_non-creaky.wav,https://benebular.github.io/pharylary/data/audio/49_non-creaky.wav,52.png,147.png,left,52.png,147.png,left,52.png,yes,195,Wired Headset,2026-01-28T04:56:52.095Z,,,,,,,,,,,,,,,,,,,,,,,,,,
65f0770588878297865a0cc4,65f0770588878297865a0cc4,2026-01-28T04:56:55.607Z,167,Trials,279,279_creaky.wav,https://benebular.github.io/pharylary/data/audio/279_creaky.wav,168.png,73.png,right,73.png,168.png,right,168.png,yes,426,Wireless hoco buds,2026-01-28T04:56:55.607Z,,,,,,,,,,,,,,,,,,,,,,,,,,
68d4239be163cb15b16606a6,68d4239be163cb15b16606a6,2026-01-28T04:56:56.380Z,109,Trials,130,130_non-creaky.wav,https://benebular.github.io/pharylary/data/audio/130_non-creaky.wav,162.png,67.png,left,162.png,67.png,left,162.png,yes,530,Wired Headset,2026-01-28T04:56:56.380Z,,,,,,,,,,,,,,,,,,,,,,,,,,
65f0770588878297865a0cc4,65f0770588878297865a0cc4,2026-01-28T04:56:59.810Z,168,Trials,130,130_non-creaky.wav,https://benebular.github.io/pharylary/data/audio/130_non-creaky.wav,162.png,67.png,left,162.png,67.png,left,162.png,yes,587,Wireless hoco buds,2026-01-28T04:56:59.810Z,,,,,,,,,,,,,,,,,,,,,,,,,,
68d4239be163cb15b16606a6,68d4239be163cb15b16606a6,2026-01-28T04:57:00.588Z,110,Trials,223,223_creaky.wav,https://benebular.github.io/pharylary/data/audio/223_creaky.wav,87.png,182.png,right,182.png,87.png,right,87.png,yes,348,Wired Headset,2026-01-28T04:57:00.588Z,,,,,,,,,,,,,,,,,,,,,,,,,,
68d4239be163cb15b16606a6,68d4239be163cb15b16606a6,2026-01-28T04:57:07.015Z,111,Trials,20,20_non-creaky.wav,https://benebular.github.io/pharylary/data/audio/20_non-creaky.wav,20.png,115.png,left,20.png,115.png,left,20.png,yes,2815,Wired Headset,2026-01-28T04:57:07.015Z,,,,,,,,,,,,,,,,,,,,,,,,,,
68d4239be163cb15b16606a6,68d4239be163cb15b16606a6,2026-01-28T04:57:13.039Z,112,Trials,183,183_creaky.wav,https://benebular.github.io/pharylary/data/audio/183_creaky.wav,40.png,135.png,right,135.png,40.png,right,40.png,yes,479,Wired Headset,2026-01-28T04:57:13.039Z,,,,,,,,,,,,,,,,,,,,,,,,,,
65f0770588878297865a0cc4,65f0770588878297865a0cc4,2026-01-28T04:57:17.229Z,,AttentionCheck,,,,,,,,,,,,,Wireless hoco buds,2026-01-28T04:57:17.229Z,,,,,,,,,,,,,,,,,,,,,,https://benebular.github.io/pharylary/experiment/audio_check/seller_b.wav,Seller,7,,
65f0770588878297865a0cc4,65f0770588878297865a0cc4,2026-01-28T04:57:23.287Z,169,Trials,286,286_creaky.wav,https://benebular.github.io/pharylary/data/audio/286_creaky.wav,180.png,85.png,right,85.png,180.png,right,180.png,yes,1204,Wireless hoco buds,2026-01-28T04:57:23.287Z,,,,,,,,,,,,,,,,,,,,,,,,,,
65f0770588878297865a0cc4,65f0770588878297865a0cc4,2026-01-28T04:57:29.091Z,170,Trials,213,213_creaky.wav,https://benebular.github.io/pharylary/data/audio/213_creaky.wav,72.png,167.png,left,72.png,167.png,left,72.png,yes,609,Wireless hoco buds,2026-01-28T04:57:29.091Z,,,,,,,,,,,,,,,,,,,,,,,,,,
65f0770588878297865a0cc4,65f0770588878297865a0cc4,2026-01-28T04:57:32.534Z,171,Trials,14,14_non-creaky.wav,https://benebular.github.io/pharylary/data/audio/14_non-creaky.wav,14.png,109.png,left,14.png,109.png,left,14.png,yes,372,Wireless hoco buds,2026-01-28T04:57:32.534Z,,,,,,,,,,,,,,,,,,,,,,,,,,
65f0770588878297865a0cc4,65f0770588878297865a0cc4,2026-01-28T04:57:36.197Z,172,Trials,31,31_non-creaky.wav,https://benebular.github.io/pharylary/data/audio/31_non-creaky.wav,30.png,125.png,left,30.png,125.png,left,30.png,yes,847,Wireless hoco buds,2026-01-28T04:57:36.197Z,,,,,,,,,,,,,,,,,,,,,,,,,,
65f0770588878297865a0cc4,65f0770588878297865a0cc4,2026-01-28T04:57:39.982Z,173,Trials,281,281_creaky.wav,https://benebular.github.io/pharylary/data/audio/281_creaky.wav,175.png,80.png,right,80.png,175.png,right,175.png,yes,531,Wireless hoco buds,2026-01-28T04:57:39.982Z,,,,,,,,,,,,,,,,,,,,,,,,,,
65f0770588878297865a0cc4,65f0770588878297865a0cc4,2026-01-28T04:57:43.696Z,174,Trials,242,242_creaky.wav,https://benebular.github.io/pharylary/data/audio/242_creaky.wav,113.png,18.png,right,18.png,113.png,right,113.png,yes,464,Wireless hoco buds,2026-01-28T04:57:43.696Z,,,,,,,,,,,,,,,,,,,,,,,,,,
65f0770588878297865a0cc4,65f0770588878297865a0cc4,2026-01-28T04:57:47.715Z,175,Trials,151,151_creaky.wav,https://benebular.github.io/pharylary/data/audio/151_creaky.wav,7.png,101.png,right,101.png,7.png,right,7.png,yes,494,Wireless hoco buds,2026-01-28T04:57:47.715Z,,,,,,,,,,,,,,,,,,,,,,,,,,
65f0770588878297865a0cc4,65f0770588878297865a0cc4,2026-01-28T04:57:51.809Z,176,Trials,59,59_non-creaky.wav,https://benebular.github.io/pharylary/data/audio/59_non-creaky.wav,64.png,159.png,right,159.png,64.png,right,64.png,yes,605,Wireless hoco buds,2026-01-28T04:57:51.809Z,,,,,,,,,,,,,,,,,,,,,,,,,,
65f0770588878297865a0cc4,65f0770588878297865a0cc4,2026-01-28T04:57:55.498Z,177,Trials,123,123_non-creaky.wav,https://benebular.github.io/pharylary/data/audio/123_non-creaky.wav,152.png,57.png,left,152.png,57.png,left,152.png,yes,465,Wireless hoco buds,2026-01-28T04:57:55.498Z,,,,,,,,,,,,,,,,,,,,,,,,,,
65f0770588878297865a0cc4,65f0770588878297865a0cc4,2026-01-28T04:57:59.337Z,178,Trials,76,76_non-creaky.wav,https://benebular.github.io/pharylary/data/audio/76_non-creaky.wav,84.png,179.png,right,179.png,84.png,right,84.png,yes,547,Wireless hoco buds,2026-01-28T04:57:59.337Z,,,,,,,,,,,,,,,,,,,,,,,,,,
65f0770588878297865a0cc4,65f0770588878297865a0cc4,2026-01-28T04:58:03.228Z,179,Trials,9,9_non-creaky.wav,https://benebular.github.io/pharylary/data/audio/9_non-creaky.wav,9.png,104.png,right,104.png,9.png,right,9.png,yes,487,Wireless hoco buds,2026-01-28T04:58:03.228Z,,,,,,,,,,,,,,,,,,,,,,,,,,
65f0770588878297865a0cc4,65f0770588878297865a0cc4,2026-01-28T04:58:07.064Z,180,Trials,190,190_creaky.wav,https://benebular.github.io/pharylary/data/audio/190_creaky.wav,48.png,143.png,right,143.png,48.png,right,48.png,yes,423,Wireless hoco buds,2026-01-28T04:58:07.064Z,,,,,,,,,,,,,,,,,,,,,,,,,,
65f0770588878297865a0cc4,65f0770588878297865a0cc4,2026-01-28T04:58:11.166Z,181,Trials,21,21_non-creaky.wav,https://benebular.github.io/pharylary/data/audio/21_non-creaky.wav,20.png,115.png,right,115.png,20.png,right,20.png,yes,646,Wireless hoco buds,2026-01-28T04:58:11.166Z,,,,,,,,,,,,,,,,,,,,,,,,,,
65f0770588878297865a0cc4,65f0770588878297865a0cc4,2026-01-28T04:58:14.729Z,182,Trials,131,131_non-creaky.wav,https://benebular.github.io/pharylary/data/audio/131_non-creaky.wav,163.png,68.png,right,68.png,163.png,right,163.png,yes,387,Wireless hoco buds,2026-01-28T04:58:14.729Z,,,,,,,,,,,,,,,,,,,,,,,,,,
65f0770588878297865a0cc4,65f0770588878297865a0cc4,2026-01-28T04:58:18.248Z,183,Trials,73,73_non-creaky.wav,https://benebular.github.io/pharylary/data/audio/73_non-creaky.wav,81.png,176.png,left,81.png,176.png,left,81.png,yes,355,Wireless hoco buds,2026-01-28T04:58:18.248Z,,,,,,,,,,,,,,,,,,,,,,,,,,
65f0770588878297865a0cc4,65f0770588878297865a0cc4,2026-01-28T04:58:21.819Z,184,Trials,196,196_creaky.wav,https://benebular.github.io/pharylary/data/audio/196_creaky.wav,55.png,150.png,right,150.png,55.png,right,55.png,yes,368,Wireless hoco buds,2026-01-28T04:58:21.819Z,,,,,,,,,,,,,,,,,,,,,,,,,,
65f0770588878297865a0cc4,65f0770588878297865a0cc4,2026-01-28T04:58:25.827Z,185,Trials,243,243_creaky.wav,https://benebular.github.io/pharylary/data/audio/243_creaky.wav,115.png,20.png,right,20.png,115.png,right,115.png,yes,380,Wireless hoco buds,2026-01-28T04:58:25.827Z,,,,,,,,,,,,,,,,,,,,,,,,,,
65f0770588878297865a0cc4,65f0770588878297865a0cc4,2026-01-28T04:58:29.793Z,186,Trials,29,29_non-creaky.wav,https://benebular.github.io/pharylary/data/audio/29_non-creaky.wav,28.png,123.png,right,123.png,28.png,right,28.png,yes,621,Wireless hoco buds,2026-01-28T04:58:29.793Z,,,,,,,,,,,,,,,,,,,,,,,,,,
65f0770588878297865a0cc4,65f0770588878297865a0cc4,2026-01-28T04:58:33.779Z,187,Trials,181,181_creaky.wav,https://benebular.github.io/pharylary/data/audio/181_creaky.wav,36.png,131.png,left,36.png,131.png,left,36.png,yes,428,Wireless hoco buds,2026-01-28T04:58:33.779Z,,,,,,,,,,,,,,,,,,,,,,,,,,
65f0770588878297865a0cc4,65f0770588878297865a0cc4,2026-01-28T04:58:37.091Z,188,Trials,124,124_non-creaky.wav,https://benebular.github.io/pharylary/data/audio/124_non-creaky.wav,155.png,60.png,right,60.png,155.png,right,155.png,yes,521,Wireless hoco buds,2026-01-28T04:58:37.091Z,,,,,,,,,,,,,,,,,,,,,,,,,,
65f0770588878297865a0cc4,65f0770588878297865a0cc4,2026-01-28T04:58:40.928Z,189,Trials,90,90_non-creaky.wav,https://benebular.github.io/pharylary/data/audio/90_non-creaky.wav,99.png,4.png,right,4.png,99.png,right,99.png,yes,393,Wireless hoco buds,2026-01-28T04:58:40.928Z,,,,,,,,,,,,,,,,,,,,,,,,,,
65f0770588878297865a0cc4,65f0770588878297865a0cc4,2026-01-28T04:58:44.622Z,190,Trials,39,39_non-creaky.wav,https://benebular.github.io/pharylary/data/audio/39_non-creaky.wav,40.png,135.png,left,40.png,135.png,left,40.png,yes,511,Wireless hoco buds,2026-01-28T04:58:44.622Z,,,,,,,,,,,,,,,,,,,,,,,,,,
65f0770588878297865a0cc4,65f0770588878297865a0cc4,2026-01-28T04:58:48.344Z,191,Trials,184,184_creaky.wav,https://benebular.github.io/pharylary/data/audio/184_creaky.wav,42.png,137.png,left,42.png,137.png,left,42.png,yes,483,Wireless hoco buds,2026-01-28T04:58:48.344Z,,,,,,,,,,,,,,,,,,,,,,,,,,
65f0770588878297865a0cc4,65f0770588878297865a0cc4,2026-01-28T04:58:52.230Z,192,Trials,117,117_non-creaky.wav,https://benebular.github.io/pharylary/data/audio/117_non-creaky.wav,146.png,51.png,left,146.png,51.png,left,146.png,yes,421,Wireless hoco buds,2026-01-28T04:58:52.230Z,,,,,,,,,,,,,,,,,,,,,,,,,,
65f0770588878297865a0cc4,65f0770588878297865a0cc4,2026-01-28T04:58:55.814Z,193,Trials,229,229_creaky.wav,https://benebular.github.io/pharylary/data/audio/229_creaky.wav,85.png,180.png,right,180.png,85.png,right,85.png,yes,539,Wireless hoco buds,2026-01-28T04:58:55.814Z,,,,,,,,,,,,,,,,,,,,,,,,,,
65f0770588878297865a0cc4,65f0770588878297865a0cc4,2026-01-28T04:58:59.725Z,194,Trials,145,145_creaky.wav,https://benebular.github.io/pharylary/data/audio/145_creaky.wav,1.png,96.png,right,96.png,1.png,right,1.png,yes,445,Wireless hoco buds,2026-01-28T04:58:59.725Z,,,,,,,,,,,,,,,,,,,,,,,,,,
65f0770588878297865a0cc4,65f0770588878297865a0cc4,2026-01-28T04:59:03.315Z,195,Trials,36,36_non-creaky.wav,https://benebular.github.io/pharylary/data/audio/36_non-creaky.wav,36.png,131.png,left,36.png,131.png,left,36.png,yes,399,Wireless hoco buds,2026-01-28T04:59:03.315Z,,,,,,,,,,,,,,,,,,,,,,,,,,
65f0770588878297865a0cc4,65f0770588878297865a0cc4,2026-01-28T04:59:07.476Z,196,Trials,284,284_creaky.wav,https://benebular.github.io/pharylary/data/audio/284_creaky.wav,178.png,83.png,right,83.png,178.png,right,178.png,yes,454,Wireless hoco buds,2026-01-28T04:59:07.476Z,,,,,,,,,,,,,,,,,,,,,,,,,,
5c1d19c810677f0001d9d56c,5c1d19c810677f0001d9d56c,2026-01-28T04:59:10.948Z,,AttentionCheck,,,,,,,,,,,,,JBL Tune 720BT,2026-01-28T04:59:10.948Z,,,,,,,,,,,,,,,,,,,,,,https://benebular.github.io/pharylary/experiment/audio_check/motley_t_b.wav,modly,1,,
65f0770588878297865a0cc4,65f0770588878297865a0cc4,2026-01-28T04:59:13.922Z,,AttentionCheck,,,,,,,,,,,,,Wireless hoco buds,2026-01-28T04:59:13.922Z,,,,,,,,,,,,,,,,,,,,,,https://benebular.github.io/pharylary/experiment/audio_check/alice_b.wav,Alice,8,,
65f0770588878297865a0cc4,65f0770588878297865a0cc4,2026-01-28T04:59:18.370Z,197,Trials,275,275_creaky.wav,https://benebular.github.io/pharylary/data/audio/275_creaky.wav,163.png,68.png,right,68.png,163.png,right,163.png,yes,667,Wireless hoco buds,2026-01-28T04:59:18.370Z,,,,,,,,,,,,,,,,,,,,,,,,,,
65f0770588878297865a0cc4,65f0770588878297865a0cc4,2026-01-28T04:59:21.832Z,198,Trials,66,66_non-creaky.wav,https://benebular.github.io/pharylary/data/audio/66_non-creaky.wav,73.png,168.png,right,168.png,73.png,right,73.png,yes,386,Wireless hoco buds,2026-01-28T04:59:21.832Z,,,,,,,,,,,,,,,,,,,,,,,,,,
65f0770588878297865a0cc4,65f0770588878297865a0cc4,2026-01-28T04:59:25.535Z,199,Trials,173,173_creaky.wav,https://benebular.github.io/pharylary/data/audio/173_creaky.wav,28.png,123.png,left,28.png,123.png,left,28.png,yes,431,Wireless hoco buds,2026-01-28T04:59:25.535Z,,,,,,,,,,,,,,,,,,,,,,,,,,
65f0770588878297865a0cc4,65f0770588878297865a0cc4,2026-01-28T04:59:29.072Z,200,Trials,64,64_non-creaky.wav,https://benebular.github.io/pharylary/data/audio/64_non-creaky.wav,70.png,165.png,right,165.png,70.png,right,70.png,yes,431,Wireless hoco buds,2026-01-28T04:59:29.072Z,,,,,,,,,,,,,,,,,,,,,,,,,,
65f0770588878297865a0cc4,65f0770588878297865a0cc4,2026-01-28T04:59:32.509Z,201,Trials,107,107_non-creaky.wav,https://benebular.github.io/pharylary/data/audio/107_non-creaky.wav,127.png,32.png,right,32.png,127.png,right,127.png,yes,598,Wireless hoco buds,2026-01-28T04:59:32.509Z,,,,,,,,,,,,,,,,,,,,,,,,,,
65f0770588878297865a0cc4,65f0770588878297865a0cc4,2026-01-28T04:59:36.047Z,202,Trials,270,270_creaky.wav,https://benebular.github.io/pharylary/data/audio/270_creaky.wav,157.png,62.png,left,157.png,62.png,left,157.png,yes,636,Wireless hoco buds,2026-01-28T04:59:36.047Z,,,,,,,,,,,,,,,,,,,,,,,,,,
65f0770588878297865a0cc4,65f0770588878297865a0cc4,2026-01-28T04:59:39.549Z,203,Trials,234,234_creaky.wav,https://benebular.github.io/pharylary/data/audio/234_creaky.wav,99.png,4.png,left,99.png,4.png,left,99.png,yes,369,Wireless hoco buds,2026-01-28T04:59:39.549Z,,,,,,,,,,,,,,,,,,,,,,,,,,
65f0770588878297865a0cc4,65f0770588878297865a0cc4,2026-01-28T04:59:43.070Z,204,Trials,102,102_non-creaky.wav,https://benebular.github.io/pharylary/data/audio/102_non-creaky.wav,119.png,24.png,right,24.png,119.png,right,119.png,yes,450,Wireless hoco buds,2026-01-28T04:59:43.070Z,,,,,,,,,,,,,,,,,,,,,,,,,,
65f0770588878297865a0cc4,65f0770588878297865a0cc4,2026-01-28T04:59:46.900Z,205,Trials,248,248_creaky.wav,https://benebular.github.io/pharylary/data/audio/248_creaky.wav,121.png,26.png,right,26.png,121.png,right,121.png,yes,438,Wireless hoco buds,2026-01-28T04:59:46.900Z,,,,,,,,,,,,,,,,,,,,,,,,,,
5c1d19c810677f0001d9d56c,5c1d19c810677f0001d9d56c,2026-01-28T04:59:47.771Z,1,Trials,137,137_non-creaky.wav,https://benebular.github.io/pharylary/data/audio/137_non-creaky.wav,175.png,80.png,left,175.png,80.png,left,175.png,yes,893,JBL Tune 720BT,2026-01-28T04:59:47.771Z,,,,,,,,,,,,,,,,,,,,,,,,,,
65f0770588878297865a0cc4,65f0770588878297865a0cc4,2026-01-28T04:59:50.778Z,206,Trials,263,263_creaky.wav,https://benebular.github.io/pharylary/data/audio/263_creaky.wav,148.png,53.png,left,148.png,53.png,left,148.png,yes,357,Wireless hoco buds,2026-01-28T04:59:50.778Z,,,,,,,,,,,,,,,,,,,,,,,,,,
5c1d19c810677f0001d9d56c,5c1d19c810677f0001d9d56c,2026-01-28T04:59:53.760Z,2,Trials,233,233_creaky.wav,https://benebular.github.io/pharylary/data/audio/233_creaky.wav,98.png,3.png,left,98.png,3.png,left,98.png,yes,905,JBL Tune 720BT,2026-01-28T04:59:53.760Z,,,,,,,,,,,,,,,,,,,,,,,,,,
65f0770588878297865a0cc4,65f0770588878297865a0cc4,2026-01-28T04:59:54.365Z,207,Trials,105,105_non-creaky.wav,https://benebular.github.io/pharylary/data/audio/105_non-creaky.wav,123.png,28.png,right,28.png,123.png,right,123.png,yes,412,Wireless hoco buds,2026-01-28T04:59:54.365Z,,,,,,,,,,,,,,,,,,,,,,,,,,
65f0770588878297865a0cc4,65f0770588878297865a0cc4,2026-01-28T04:59:58.409Z,208,Trials,240,240_creaky.wav,https://benebular.github.io/pharylary/data/audio/240_creaky.wav,109.png,14.png,right,14.png,109.png,right,109.png,yes,958,Wireless hoco buds,2026-01-28T04:59:58.409Z,,,,,,,,,,,,,,,,,,,,,,,,,,
5c1d19c810677f0001d9d56c,5c1d19c810677f0001d9d56c,2026-01-28T04:59:58.622Z,3,Trials,158,158_creaky.wav,https://benebular.github.io/pharylary/data/audio/158_creaky.wav,14.png,109.png,right,109.png,14.png,right,14.png,yes,834,JBL Tune 720BT,2026-01-28T04:59:58.622Z,,,,,,,,,,,,,,,,,,,,,,,,,,
65f0770588878297865a0cc4,65f0770588878297865a0cc4,2026-01-28T05:00:02.058Z,209,Trials,191,191_creaky.wav,https://benebular.github.io/pharylary/data/audio/191_creaky.wav,50.png,145.png,left,50.png,145.png,left,50.png,yes,390,Wireless hoco buds,2026-01-28T05:00:02.058Z,,,,,,,,,,,,,,,,,,,,,,,,,,
5c1d19c810677f0001d9d56c,5c1d19c810677f0001d9d56c,2026-01-28T05:00:03.901Z,4,Trials,64,64_non-creaky.wav,https://benebular.github.io/pharylary/data/audio/64_non-creaky.wav,70.png,165.png,right,165.png,70.png,right,70.png,yes,555,JBL Tune 720BT,2026-01-28T05:00:03.901Z,,,,,,,,,,,,,,,,,,,,,,,,,,
