participant_id,prolific_id,timestamp_iso,trial_index,block,trial_id,audio_file,audio_url,target_image,distractor_image,target_side,left_image,right_image,choice,choice_image,is_correct,reaction_time_ms,headphone_type,timestamp_iso,recognize,understand,meaning_match,msa_dialect,natural,dialect_best,dialect_second,understand_other,msa_instruction,msa_vowels,msa_reading,msa_listening,other_languages,percent_english,percent_arabic,percent_other,language_switching,family_preference,age,gender,country_of_residence,attention_audio,attention_response,attention_index,final_feedback,completion_code
ksdjhfsdl,ksdjhfsdl,,,AttentionCheck,,,,,,,,,,,,,,,,,,,,,,,,,,,,,,,,,,,,,,,,
ksdjhfsdl,ksdjhfsdl,,1,Trials,,,,,,,,,,,,,,,,,,,,,,,,,,,,,,,,,,,,,,,,
ksdjhfsdl,ksdjhfsdl,,2,Trials,,,,,,,,,,,,,,,,,,,,,,,,,,,,,,,,,,,,,,,,
ksdjhfsdl,ksdjhfsdl,,3,Trials,,,,,,,,,,,,,,,,,,,,,,,,,,,,,,,,,,,,,,,,
ksdjhfsdl,ksdjhfsdl,,4,Trials,,,,,,,,,,,,,,,,,,,,,,,,,,,,,,,,,,,,,,,,
ksdjhfsdl,ksdjhfsdl,,,AttentionCheck,,,,,,,,,,,,,,,,,,,,,,,,,,,,,,,,,,,,,,,,
kuhuh,kuhuh,,,AttentionCheck,,,,,,,,,,,,,,,,,,,,,,,,,,,,,,,,,,,,,,,,
kuhuh,kuhuh,,1,Trials,,,,,,,,,,,,,,,,,,,,,,,,,,,,,,,,,,,,,,,,
kuhuh,kuhuh,,2,Trials,,,,,,,,,,,,,,,,,,,,,,,,,,,,,,,,,,,,,,,,
kukhluh,kukhluh,,,AttentionCheck,,,,,,,,,,,,,,,,,,,,,,,,,,,,,,,,,,,,,,,,
kukhluh,kukhluh,,1,Trials,,,,,,,,,,,,,,,,,,,,,,,,,,,,,,,,,,,,,,,,
kukhluh,kukhluh,,2,Trials,,,,,,,,,,,,,,,,,,,,,,,,,,,,,,,,,,,,,,,,
kukhluh,kukhluh,,3,Trials,,,,,,,,,,,,,,,,,,,,,,,,,,,,,,,,,,,,,,,,
dsafsdf,dsafsdf,,,AttentionCheck,,,,,,,,,,,,,,,,,,,,,,,,,,,,,,,,,,,,,,,,
dsafsdf,dsafsdf,,1,Trials,,,,,,,,,,,,,,,,,,,,,,,,,,,,,,,,,,,,,,,,
dsafsdf,dsafsdf,,2,Trials,,,,,,,,,,,,,,,,,,,,,,,,,,,,,,,,,,,,,,,,
dsafsdf,dsafsdf,,3,Trials,,,,,,,,,,,,,,,,,,,,,,,,,,,,,,,,,,,,,,,,
dsafsdf,dsafsdf,,4,Trials,,,,,,,,,,,,,,,,,,,,,,,,,,,,,,,,,,,,,,,,
dsafsdf,dsafsdf,,,AttentionCheck,,,,,,,,,,,,,,,,,,,,,,,,,,,,,,,,,,,,,,,,
dsafsdf,dsafsdf,,5,Trials,,,,,,,,,,,,,,,,,,,,,,,,,,,,,,,,,,,,,,,,
asdfasdfads,asdfasdfads,,,AttentionCheck,,,,,,,,,,,,,,,,,,,,,,,,,,,,,,,,,,,,,,,,
asdfasdfads,asdfasdfads,,1,Trials,,,,,,,,,,,,,,,,,,,,,,,,,,,,,,,,,,,,,,,,
asdfasdfads,asdfasdfads,,2,Trials,,,,,,,,,,,,,,,,,,,,,,,,,,,,,,,,,,,,,,,,
asdfasdfads,asdfasdfads,,3,Trials,,,,,,,,,,,,,,,,,,,,,,,,,,,,,,,,,,,,,,,,
asdfasdfads,asdfasdfads,,4,Trials,,,,,,,,,,,,,,,,,,,,,,,,,,,,,,,,,,,,,,,,
asdfasdfads,asdfasdfads,,,AttentionCheck,,,,,,,,,,,,,,,,,,,,,,,,,,,,,,,,,,,,,,,,
asdfasdfads,asdfasdfads,,5,Trials,,,,,,,,,,,,,,,,,,,,,,,,,,,,,,,,,,,,,,,,
kjohwrjnvaljnv,kjohwrjnvaljnv,,,AttentionCheck,,,,,,,,,,,,,erohnoistjn,2026-01-25T23:31:30.100Z,,,,,,,,,,,,,,,,,,,,,,,,,,
kjohwrjnvaljnv,kjohwrjnvaljnv,,1,Trials,5,jʊʔarːɪb-b.wav,http://127.0.0.1:5500/data/audio/j%CA%8A%CA%94ar%CB%90%C9%AAb-b.wav,4.png,99.png,right,99.png,4.png,right,4.png,yes,894,erohnoistjn,2026-01-25T23:31:34.039Z,,,,,,,,,,,,,,,,,,,,,,,,,,
kjohwrjnvaljnv,kjohwrjnvaljnv,,2,Trials,280,jakʊfː-b.wav,http://127.0.0.1:5500/data/audio/jak%CA%8Af%CB%90-b.wav,113.png,18.png,left,113.png,18.png,left,113.png,yes,493,erohnoistjn,2026-01-25T23:31:37.990Z,,,,,,,,,,,,,,,,,,,,,,,,,,
thyhyhyhy,thyhyhyhy,,,AttentionCheck,,,,,,,,,,,,,dykyfjhsb,2026-01-25T23:34:24.815Z,,,,,,,,,,,,,,,,,,,,,,,,,,
thyhyhyhy,thyhyhyhy,,1,Trials,279,jakʊfː-b.wav,http://127.0.0.1:5500/data/audio/jak%CA%8Af%CB%90-b.wav,113.png,18.png,left,113.png,18.png,right,18.png,no,1120,dykyfjhsb,2026-01-25T23:34:30.371Z,,,,,,,,,,,,,,,,,,,,,,,,,,
dgbsrtbb,dgbsrtbb,,,AttentionCheck,,,,,,,,,,,,,hdrthbsfgb,2026-01-27T17:23:44.167Z,,,,,,,,,,,,,,,,,,,,,,,,,,
dgbsrtbb,dgbsrtbb,,1,Trials,199,199_creaky.wav,http://127.0.0.1:5500/data/audio/199_creaky.wav,60.png,155.png,left,60.png,155.png,right,155.png,no,663,hdrthbsfgb,2026-01-27T17:23:50.797Z,,,,,,,,,,,,,,,,,,,,,,,,,,
dgbsrtbb,dgbsrtbb,,2,Trials,115,115_non-creaky.wav,http://127.0.0.1:5500/data/audio/115_non-creaky.wav,143.png,48.png,left,143.png,48.png,left,143.png,yes,378,hdrthbsfgb,2026-01-27T17:23:53.947Z,,,,,,,,,,,,,,,,,,,,,,,,,,
dgbsrtbb,dgbsrtbb,,3,Trials,240,240_creaky.wav,http://127.0.0.1:5500/data/audio/240_creaky.wav,109.png,14.png,right,14.png,109.png,right,109.png,yes,308,hdrthbsfgb,2026-01-27T17:23:57.063Z,,,,,,,,,,,,,,,,,,,,,,,,,,
dgbsrtbb,dgbsrtbb,,4,Trials,210,210_creaky.wav,http://127.0.0.1:5500/data/audio/210_creaky.wav,73.png,168.png,right,168.png,73.png,left,168.png,no,358,hdrthbsfgb,2026-01-27T17:24:00.385Z,,,,,,,,,,,,,,,,,,,,,,,,,,
tgsetrgsbrtgbh,tgsetrgsbrtgbh,,,AttentionCheck,,,,,,,,,,,,,rhbrdthstrh,2026-01-27T17:49:45.476Z,,,,,,,,,,,,,,,,,,,,,,,,,,
sthsethstrg,sthsethstrg,,,AttentionCheck,,,,,,,,,,,,,esgrtgsr,2026-01-27T17:50:56.192Z,,,,,,,,,,,,,,,,,,,,,,,,,,
sthsethstrg,sthsethstrg,,1,Trials,60,60_non-creaky.wav,http://127.0.0.1:5500/data/audio/60_non-creaky.wav,65.png,160.png,left,65.png,160.png,right,160.png,no,2009,esgrtgsr,2026-01-27T17:51:02.751Z,,,,,,,,,,,,,,,,,,,,,,,,,,
sthsethstrg,sthsethstrg,,2,Trials,70,70_non-creaky.wav,http://127.0.0.1:5500/data/audio/70_non-creaky.wav,73.png,168.png,left,73.png,168.png,left,73.png,yes,468,esgrtgsr,2026-01-27T17:51:05.861Z,,,,,,,,,,,,,,,,,,,,,,,,,,
sthsethstrg,sthsethstrg,,3,Trials,143,143_non-creaky.wav,http://127.0.0.1:5500/data/audio/143_non-creaky.wav,181.png,86.png,left,181.png,86.png,right,86.png,no,801,esgrtgsr,2026-01-27T17:51:09.501Z,,,,,,,,,,,,,,,,,,,,,,,,,,
sthsethstrg,sthsethstrg,,4,Trials,136,136_non-creaky.wav,http://127.0.0.1:5500/data/audio/136_non-creaky.wav,169.png,74.png,right,74.png,169.png,left,74.png,no,1209,esgrtgsr,2026-01-27T17:51:13.867Z,,,,,,,,,,,,,,,,,,,,,,,,,,
sthsethstrg,sthsethstrg,,5,Trials,68,68_non-creaky.wav,http://127.0.0.1:5500/data/audio/68_non-creaky.wav,75.png,165.png,left,75.png,165.png,right,165.png,no,469,esgrtgsr,2026-01-27T17:51:16.851Z,,,,,,,,,,,,,,,,,,,,,,,,,,
sthsethstrg,sthsethstrg,,6,Trials,202,202_creaky.wav,http://127.0.0.1:5500/data/audio/202_creaky.wav,63.png,158.png,right,158.png,63.png,left,158.png,no,395,esgrtgsr,2026-01-27T17:51:20.731Z,,,,,,,,,,,,,,,,,,,,,,,,,,
sthsethstrg,sthsethstrg,,7,Trials,42,42_non-creaky.wav,http://127.0.0.1:5500/data/audio/42_non-creaky.wav,44.png,139.png,right,139.png,44.png,right,44.png,yes,669,esgrtgsr,2026-01-27T17:51:23.982Z,,,,,,,,,,,,,,,,,,,,,,,,,,
sthsethstrg,sthsethstrg,,8,Trials,273,273_creaky.wav,http://127.0.0.1:5500/data/audio/273_creaky.wav,160.png,65.png,right,65.png,160.png,left,65.png,no,385,esgrtgsr,2026-01-27T17:51:27.384Z,,,,,,,,,,,,,,,,,,,,,,,,,,
sthsethstrg,sthsethstrg,,9,Trials,283,283_creaky.wav,http://127.0.0.1:5500/data/audio/283_creaky.wav,177.png,82.png,right,82.png,177.png,right,177.png,yes,491,esgrtgsr,2026-01-27T17:51:30.596Z,,,,,,,,,,,,,,,,,,,,,,,,,,
sthsethstrg,sthsethstrg,,10,Trials,211,211_creaky.wav,http://127.0.0.1:5500/data/audio/211_creaky.wav,74.png,169.png,left,74.png,169.png,left,74.png,yes,508,esgrtgsr,2026-01-27T17:51:34.376Z,,,,,,,,,,,,,,,,,,,,,,,,,,
sthsethstrg,sthsethstrg,,,AttentionCheck,,,,,,,,,,,,,esgrtgsr,2026-01-27T17:51:37.445Z,,,,,,,,,,,,,,,,,,,,,,,,,,
sthsethstrg,sthsethstrg,,11,Trials,88,88_non-creaky.wav,http://127.0.0.1:5500/data/audio/88_non-creaky.wav,96.png,1.png,left,96.png,1.png,right,1.png,no,605,esgrtgsr,2026-01-27T17:51:41.542Z,,,,,,,,,,,,,,,,,,,,,,,,,,
sthsethstrg,sthsethstrg,,12,Trials,37,37_non-creaky.wav,http://127.0.0.1:5500/data/audio/37_non-creaky.wav,36.png,131.png,left,36.png,131.png,left,36.png,yes,634,esgrtgsr,2026-01-27T17:51:45.268Z,,,,,,,,,,,,,,,,,,,,,,,,,,
sthsethstrg,sthsethstrg,,13,Trials,256,256_creaky.wav,http://127.0.0.1:5500/data/audio/256_creaky.wav,139.png,44.png,left,139.png,44.png,right,44.png,no,549,esgrtgsr,2026-01-27T17:51:48.716Z,,,,,,,,,,,,,,,,,,,,,,,,,,
sthsethstrg,sthsethstrg,,14,Trials,89,89_non-creaky.wav,http://127.0.0.1:5500/data/audio/89_non-creaky.wav,98.png,3.png,left,98.png,3.png,right,3.png,no,540,esgrtgsr,2026-01-27T17:51:52.026Z,,,,,,,,,,,,,,,,,,,,,,,,,,
sthsethstrg,sthsethstrg,,15,Trials,34,34_non-creaky.wav,http://127.0.0.1:5500/data/audio/34_non-creaky.wav,34.png,129.png,right,129.png,34.png,left,129.png,no,1026,esgrtgsr,2026-01-27T17:51:56.725Z,,,,,,,,,,,,,,,,,,,,,,,,,,
sthsethstrg,sthsethstrg,,16,Trials,31,31_non-creaky.wav,http://127.0.0.1:5500/data/audio/31_non-creaky.wav,30.png,125.png,left,30.png,125.png,right,125.png,no,748,esgrtgsr,2026-01-27T17:51:59.933Z,,,,,,,,,,,,,,,,,,,,,,,,,,
sthsethstrg,sthsethstrg,,17,Trials,186,186_creaky.wav,http://127.0.0.1:5500/data/audio/186_creaky.wav,44.png,139.png,right,139.png,44.png,left,139.png,no,488,esgrtgsr,2026-01-27T17:52:02.921Z,,,,,,,,,,,,,,,,,,,,,,,,,,
sthsethstrg,sthsethstrg,,18,Trials,151,151_creaky.wav,http://127.0.0.1:5500/data/audio/151_creaky.wav,4.png,101.png,right,101.png,4.png,right,4.png,yes,391,esgrtgsr,2026-01-27T17:52:06.117Z,,,,,,,,,,,,,,,,,,,,,,,,,,
sthsethstrg,sthsethstrg,,19,Trials,25,25_non-creaky.wav,http://127.0.0.1:5500/data/audio/25_non-creaky.wav,25.png,120.png,left,25.png,120.png,left,25.png,yes,302,esgrtgsr,2026-01-27T17:52:09.048Z,,,,,,,,,,,,,,,,,,,,,,,,,,
sthsethstrg,sthsethstrg,,20,Trials,16,16_non-creaky.wav,http://127.0.0.1:5500/data/audio/16_non-creaky.wav,16.png,112.png,right,112.png,16.png,right,16.png,yes,715,esgrtgsr,2026-01-27T17:52:12.497Z,,,,,,,,,,,,,,,,,,,,,,,,,,
sthsethstrg,sthsethstrg,,,AttentionCheck,,,,,,,,,,,,,esgrtgsr,2026-01-27T17:52:19.570Z,,,,,,,,,,,,,,,,,,,,,,,,,,
sthsethstrg,sthsethstrg,,21,Trials,197,197_creaky.wav,http://127.0.0.1:5500/data/audio/197_creaky.wav,56.png,151.png,right,151.png,56.png,right,56.png,yes,1112,esgrtgsr,2026-01-27T17:52:24.443Z,,,,,,,,,,,,,,,,,,,,,,,,,,
sthsethstrg,sthsethstrg,,22,Trials,50,50_non-creaky.wav,http://127.0.0.1:5500/data/audio/50_non-creaky.wav,53.png,148.png,left,53.png,148.png,left,53.png,yes,865,esgrtgsr,2026-01-27T17:52:27.916Z,,,,,,,,,,,,,,,,,,,,,,,,,,
sthsethstrg,sthsethstrg,,23,Trials,95,95_non-creaky.wav,http://127.0.0.1:5500/data/audio/95_non-creaky.wav,107.png,12.png,left,107.png,12.png,right,12.png,no,854,esgrtgsr,2026-01-27T17:52:31.351Z,,,,,,,,,,,,,,,,,,,,,,,,,,
sthsethstrg,sthsethstrg,,24,Trials,183,183_creaky.wav,http://127.0.0.1:5500/data/audio/183_creaky.wav,40.png,135.png,left,40.png,135.png,left,40.png,yes,812,esgrtgsr,2026-01-27T17:52:34.683Z,,,,,,,,,,,,,,,,,,,,,,,,,,
sthsethstrg,sthsethstrg,,25,Trials,277,277_creaky.wav,http://127.0.0.1:5500/data/audio/277_creaky.wav,165.png,70.png,left,165.png,70.png,right,70.png,no,576,esgrtgsr,2026-01-27T17:52:37.716Z,,,,,,,,,,,,,,,,,,,,,,,,,,
sthsethstrg,sthsethstrg,,26,Trials,255,255_creaky.wav,http://127.0.0.1:5500/data/audio/255_creaky.wav,137.png,42.png,left,137.png,42.png,left,137.png,yes,637,esgrtgsr,2026-01-27T17:52:40.495Z,,,,,,,,,,,,,,,,,,,,,,,,,,
sthsethstrg,sthsethstrg,,27,Trials,7,7_non-creaky.wav,http://127.0.0.1:5500/data/audio/7_non-creaky.wav,4.png,101.png,right,101.png,4.png,right,4.png,yes,355,esgrtgsr,2026-01-27T17:52:43.276Z,,,,,,,,,,,,,,,,,,,,,,,,,,
pfjawrfpajwrd,pfjawrfpajwrd,,,AttentionCheck,,,,,,,,,,,,,aldksfjgakrj;fa,2026-01-27T18:00:42.918Z,,,,,,,,,,,,,,,,,,,,,,,,,,
pfjawrfpajwrd,pfjawrfpajwrd,,1,Trials,142,142_non-creaky.wav,http://127.0.0.1:5500/data/audio/142_non-creaky.wav,180.png,85.png,left,180.png,85.png,right,85.png,no,637,aldksfjgakrj;fa,2026-01-27T18:00:47.307Z,,,,,,,,,,,,,,,,,,,,,,,,,,
pfjawrfpajwrd,pfjawrfpajwrd,,2,Trials,164,164_creaky.wav,http://127.0.0.1:5500/data/audio/164_creaky.wav,20.png,115.png,left,20.png,115.png,left,20.png,yes,468,aldksfjgakrj;fa,2026-01-27T18:00:50.573Z,,,,,,,,,,,,,,,,,,,,,,,,,,
pfjawrfpajwrd,pfjawrfpajwrd,,3,Trials,26,26_non-creaky.wav,http://127.0.0.1:5500/data/audio/26_non-creaky.wav,26.png,121.png,left,26.png,121.png,right,121.png,no,299,aldksfjgakrj;fa,2026-01-27T18:00:53.539Z,,,,,,,,,,,,,,,,,,,,,,,,,,
pfjawrfpajwrd,pfjawrfpajwrd,,4,Trials,22,22_non-creaky.wav,http://127.0.0.1:5500/data/audio/22_non-creaky.wav,22.png,117.png,right,117.png,22.png,left,117.png,no,317,aldksfjgakrj;fa,2026-01-27T18:00:56.725Z,,,,,,,,,,,,,,,,,,,,,,,,,,
pfjawrfpajwrd,pfjawrfpajwrd,,5,Trials,214,214_creaky.wav,http://127.0.0.1:5500/data/audio/214_creaky.wav,73.png,168.png,left,73.png,168.png,right,168.png,no,272,aldksfjgakrj;fa,2026-01-27T18:00:59.593Z,,,,,,,,,,,,,,,,,,,,,,,,,,
pfjawrfpajwrd,pfjawrfpajwrd,,6,Trials,205,205_creaky.wav,http://127.0.0.1:5500/data/audio/205_creaky.wav,67.png,162.png,right,162.png,67.png,left,162.png,no,347,aldksfjgakrj;fa,2026-01-27T18:01:02.985Z,,,,,,,,,,,,,,,,,,,,,,,,,,
pfjawrfpajwrd,pfjawrfpajwrd,,7,Trials,111,111_non-creaky.wav,http://127.0.0.1:5500/data/audio/111_non-creaky.wav,137.png,42.png,right,42.png,137.png,right,137.png,yes,484,aldksfjgakrj;fa,2026-01-27T18:01:05.908Z,,,,,,,,,,,,,,,,,,,,,,,,,,
pfjawrfpajwrd,pfjawrfpajwrd,,8,Trials,181,181_creaky.wav,http://127.0.0.1:5500/data/audio/181_creaky.wav,36.png,131.png,right,131.png,36.png,left,131.png,no,340,aldksfjgakrj;fa,2026-01-27T18:01:09.253Z,,,,,,,,,,,,,,,,,,,,,,,,,,
pfjawrfpajwrd,pfjawrfpajwrd,,9,Trials,194,194_creaky.wav,http://127.0.0.1:5500/data/audio/194_creaky.wav,53.png,148.png,left,53.png,148.png,right,148.png,no,319,aldksfjgakrj;fa,2026-01-27T18:01:12.185Z,,,,,,,,,,,,,,,,,,,,,,,,,,
pfjawrfpajwrd,pfjawrfpajwrd,,10,Trials,13,13_non-creaky.wav,http://127.0.0.1:5500/data/audio/13_non-creaky.wav,12.png,107.png,left,12.png,107.png,left,12.png,yes,453,aldksfjgakrj;fa,2026-01-27T18:01:15.083Z,,,,,,,,,,,,,,,,,,,,,,,,,,
pfjawrfpajwrd,pfjawrfpajwrd,,11,Trials,180,180_creaky.wav,http://127.0.0.1:5500/data/audio/180_creaky.wav,36.png,131.png,right,131.png,36.png,right,36.png,yes,370,aldksfjgakrj;fa,2026-01-27T18:01:18.252Z,,,,,,,,,,,,,,,,,,,,,,,,,,
pfjawrfpajwrd,pfjawrfpajwrd,,12,Trials,72,72_non-creaky.wav,http://127.0.0.1:5500/data/audio/72_non-creaky.wav,80.png,175.png,right,175.png,80.png,left,175.png,no,432,aldksfjgakrj;fa,2026-01-27T18:01:21.122Z,,,,,,,,,,,,,,,,,,,,,,,,,,
pfjawrfpajwrd,pfjawrfpajwrd,,13,Trials,286,286_creaky.wav,http://127.0.0.1:5500/data/audio/286_creaky.wav,180.png,85.png,right,85.png,180.png,right,180.png,yes,428,aldksfjgakrj;fa,2026-01-27T18:01:24.218Z,,,,,,,,,,,,,,,,,,,,,,,,,,
pfjawrfpajwrd,pfjawrfpajwrd,,14,Trials,156,156_creaky.wav,http://127.0.0.1:5500/data/audio/156_creaky.wav,12.png,107.png,left,12.png,107.png,left,12.png,yes,375,aldksfjgakrj;fa,2026-01-27T18:01:27.306Z,,,,,,,,,,,,,,,,,,,,,,,,,,
pfjawrfpajwrd,pfjawrfpajwrd,,15,Trials,1,1_non-creaky.wav,http://127.0.0.1:5500/data/audio/1_non-creaky.wav,1.png,96.png,left,1.png,96.png,right,96.png,no,328,aldksfjgakrj;fa,2026-01-27T18:01:30.233Z,,,,,,,,,,,,,,,,,,,,,,,,,,
pfjawrfpajwrd,pfjawrfpajwrd,,16,Trials,86,86_non-creaky.wav,http://127.0.0.1:5500/data/audio/86_non-creaky.wav,86.png,181.png,left,86.png,181.png,left,86.png,yes,541,aldksfjgakrj;fa,2026-01-27T18:01:33.184Z,,,,,,,,,,,,,,,,,,,,,,,,,,
pfjawrfpajwrd,pfjawrfpajwrd,,17,Trials,176,176_creaky.wav,http://127.0.0.1:5500/data/audio/176_creaky.wav,32.png,127.png,left,32.png,127.png,right,127.png,no,756,aldksfjgakrj;fa,2026-01-27T18:01:36.321Z,,,,,,,,,,,,,,,,,,,,,,,,,,
pfjawrfpajwrd,pfjawrfpajwrd,,18,Trials,144,144_non-creaky.wav,http://127.0.0.1:5500/data/audio/144_non-creaky.wav,182.png,87.png,right,87.png,182.png,left,87.png,no,483,aldksfjgakrj;fa,2026-01-27T18:01:39.357Z,,,,,,,,,,,,,,,,,,,,,,,,,,
pfjawrfpajwrd,pfjawrfpajwrd,,19,Trials,33,33_non-creaky.wav,http://127.0.0.1:5500/data/audio/33_non-creaky.wav,32.png,127.png,left,32.png,127.png,right,127.png,no,472,aldksfjgakrj;fa,2026-01-27T18:01:42.321Z,,,,,,,,,,,,,,,,,,,,,,,,,,
pfjawrfpajwrd,pfjawrfpajwrd,,20,Trials,114,114_non-creaky.wav,http://127.0.0.1:5500/data/audio/114_non-creaky.wav,142.png,47.png,left,142.png,47.png,left,142.png,yes,388,aldksfjgakrj;fa,2026-01-27T18:01:45.097Z,,,,,,,,,,,,,,,,,,,,,,,,,,
pfjawrfpajwrd,pfjawrfpajwrd,,21,Trials,191,191_creaky.wav,http://127.0.0.1:5500/data/audio/191_creaky.wav,50.png,145.png,left,50.png,145.png,right,145.png,no,541,aldksfjgakrj;fa,2026-01-27T18:01:48.158Z,,,,,,,,,,,,,,,,,,,,,,,,,,
pfjawrfpajwrd,pfjawrfpajwrd,,22,Trials,21,21_non-creaky.wav,http://127.0.0.1:5500/data/audio/21_non-creaky.wav,20.png,115.png,left,20.png,115.png,right,115.png,no,347,aldksfjgakrj;fa,2026-01-27T18:01:52.326Z,,,,,,,,,,,,,,,,,,,,,,,,,,
pfjawrfpajwrd,pfjawrfpajwrd,,23,Trials,203,203_creaky.wav,http://127.0.0.1:5500/data/audio/203_creaky.wav,64.png,159.png,left,64.png,159.png,left,64.png,yes,334,aldksfjgakrj;fa,2026-01-27T18:01:55.840Z,,,,,,,,,,,,,,,,,,,,,,,,,,
pfjawrfpajwrd,pfjawrfpajwrd,,24,Trials,195,195_creaky.wav,http://127.0.0.1:5500/data/audio/195_creaky.wav,54.png,149.png,right,149.png,54.png,right,54.png,yes,365,aldksfjgakrj;fa,2026-01-27T18:01:58.931Z,,,,,,,,,,,,,,,,,,,,,,,,,,
pfjawrfpajwrd,pfjawrfpajwrd,,25,Trials,141,141_non-creaky.wav,http://127.0.0.1:5500/data/audio/141_non-creaky.wav,179.png,84.png,left,179.png,84.png,left,179.png,yes,345,aldksfjgakrj;fa,2026-01-27T18:02:01.886Z,,,,,,,,,,,,,,,,,,,,,,,,,,
pfjawrfpajwrd,pfjawrfpajwrd,,26,Trials,131,131_non-creaky.wav,http://127.0.0.1:5500/data/audio/131_non-creaky.wav,163.png,68.png,right,68.png,163.png,right,163.png,yes,122,aldksfjgakrj;fa,2026-01-27T18:02:04.676Z,,,,,,,,,,,,,,,,,,,,,,,,,,
pfjawrfpajwrd,pfjawrfpajwrd,,27,Trials,178,178_creaky.wav,http://127.0.0.1:5500/data/audio/178_creaky.wav,34.png,129.png,left,34.png,129.png,left,34.png,yes,102,aldksfjgakrj;fa,2026-01-27T18:02:07.568Z,,,,,,,,,,,,,,,,,,,,,,,,,,
pfjawrfpajwrd,pfjawrfpajwrd,,28,Trials,110,110_non-creaky.wav,http://127.0.0.1:5500/data/audio/110_non-creaky.wav,135.png,40.png,right,40.png,135.png,right,135.png,yes,341,aldksfjgakrj;fa,2026-01-27T18:02:10.442Z,,,,,,,,,,,,,,,,,,,,,,,,,,
pfjawrfpajwrd,pfjawrfpajwrd,,,AttentionCheck,,,,,,,,,,,,,aldksfjgakrj;fa,2026-01-27T18:02:14.375Z,,,,,,,,,,,,,,,,,,,,,,,,,,
pfjawrfpajwrd,pfjawrfpajwrd,,29,Trials,209,209_creaky.wav,http://127.0.0.1:5500/data/audio/209_creaky.wav,72.png,167.png,left,72.png,167.png,left,72.png,yes,272,aldksfjgakrj;fa,2026-01-27T18:02:18.614Z,,,,,,,,,,,,,,,,,,,,,,,,,,
pfjawrfpajwrd,pfjawrfpajwrd,,30,Trials,29,29_non-creaky.wav,http://127.0.0.1:5500/data/audio/29_non-creaky.wav,28.png,123.png,right,123.png,28.png,right,28.png,yes,302,aldksfjgakrj;fa,2026-01-27T18:02:21.554Z,,,,,,,,,,,,,,,,,,,,,,,,,,
pfjawrfpajwrd,pfjawrfpajwrd,,31,Trials,65,65_non-creaky.wav,http://127.0.0.1:5500/data/audio/65_non-creaky.wav,72.png,167.png,right,167.png,72.png,left,167.png,no,470,aldksfjgakrj;fa,2026-01-27T18:02:24.781Z,,,,,,,,,,,,,,,,,,,,,,,,,,
pfjawrfpajwrd,pfjawrfpajwrd,,32,Trials,272,272_creaky.wav,http://127.0.0.1:5500/data/audio/272_creaky.wav,159.png,64.png,right,64.png,159.png,right,159.png,yes,510,aldksfjgakrj;fa,2026-01-27T18:02:28.437Z,,,,,,,,,,,,,,,,,,,,,,,,,,
pfjawrfpajwrd,pfjawrfpajwrd,,33,Trials,15,15_non-creaky.wav,http://127.0.0.1:5500/data/audio/15_non-creaky.wav,14.png,109.png,right,109.png,14.png,left,109.png,no,474,aldksfjgakrj;fa,2026-01-27T18:02:31.463Z,,,,,,,,,,,,,,,,,,,,,,,,,,
adfkdjfalwefj,adfkdjfalwefj,,,AttentionCheck,,,,,,,,,,,,,ergergf,2026-01-27T18:15:39.977Z,,,,,,,,,,,,,,,,,,,,,,,,,,
dfgasdfg,dfgasdfg,,,AttentionCheck,,,,,,,,,,,,,awergaerg,2026-01-27T18:56:38.423Z,,,,,,,,,,,,,,,,,,,,,,,,,,
rtgstrg,rtgstrg,,,AttentionCheck,,,,,,,,,,,,,rtsheydhneyrthn,2026-01-27T18:59:19.575Z,,,,,,,,,,,,,,,,,,,,,,,,,,
rtgstrg,rtgstrg,,1,Trials,97,97_non-creaky.wav,http://127.0.0.1:5500/data/audio/97_non-creaky.wav,112.png,16.png,left,112.png,16.png,left,112.png,yes,535,rtsheydhneyrthn,2026-01-27T18:59:25.656Z,,,,,,,,,,,,,,,,,,,,,,,,,,
rtgstrg,rtgstrg,,2,Trials,269,269_creaky.wav,http://127.0.0.1:5500/data/audio/269_creaky.wav,156.png,61.png,right,61.png,156.png,right,156.png,yes,511,rtsheydhneyrthn,2026-01-27T18:59:29.515Z,,,,,,,,,,,,,,,,,,,,,,,,,,
rtgstrg,rtgstrg,,3,Trials,252,252_creaky.wav,http://127.0.0.1:5500/data/audio/252_creaky.wav,129.png,34.png,right,34.png,129.png,left,34.png,no,404,rtsheydhneyrthn,2026-01-27T18:59:32.828Z,,,,,,,,,,,,,,,,,,,,,,,,,,
rtgstrg,rtgstrg,,4,Trials,60,60_non-creaky.wav,http://127.0.0.1:5500/data/audio/60_non-creaky.wav,65.png,160.png,right,160.png,65.png,right,65.png,yes,347,rtsheydhneyrthn,2026-01-27T18:59:35.597Z,,,,,,,,,,,,,,,,,,,,,,,,,,
rtgstrg,rtgstrg,,5,Trials,15,15_non-creaky.wav,http://127.0.0.1:5500/data/audio/15_non-creaky.wav,14.png,109.png,left,14.png,109.png,left,14.png,yes,444,rtsheydhneyrthn,2026-01-27T18:59:38.387Z,,,,,,,,,,,,,,,,,,,,,,,,,,
rtgstrg,rtgstrg,,6,Trials,84,84_non-creaky.wav,http://127.0.0.1:5500/data/audio/84_non-creaky.wav,84.png,179.png,right,179.png,84.png,right,84.png,yes,315,rtsheydhneyrthn,2026-01-27T18:59:41.187Z,,,,,,,,,,,,,,,,,,,,,,,,,,
rtgstrg,rtgstrg,,7,Trials,32,32_non-creaky.wav,http://127.0.0.1:5500/data/audio/32_non-creaky.wav,32.png,127.png,right,127.png,32.png,left,127.png,no,650,rtsheydhneyrthn,2026-01-27T18:59:44.047Z,,,,,,,,,,,,,,,,,,,,,,,,,,
rtgstrg,rtgstrg,,8,Trials,33,33_non-creaky.wav,http://127.0.0.1:5500/data/audio/33_non-creaky.wav,32.png,127.png,right,127.png,32.png,right,32.png,yes,361,rtsheydhneyrthn,2026-01-27T18:59:46.711Z,,,,,,,,,,,,,,,,,,,,,,,,,,
rtgstrg,rtgstrg,,9,Trials,247,247_creaky.wav,http://127.0.0.1:5500/data/audio/247_creaky.wav,120.png,25.png,right,25.png,120.png,left,25.png,no,323,rtsheydhneyrthn,2026-01-27T18:59:49.924Z,,,,,,,,,,,,,,,,,,,,,,,,,,
rtgstrg,rtgstrg,,10,Trials,286,286_creaky.wav,http://127.0.0.1:5500/data/audio/286_creaky.wav,180.png,85.png,left,180.png,85.png,right,85.png,no,268,rtsheydhneyrthn,2026-01-27T18:59:52.752Z,,,,,,,,,,,,,,,,,,,,,,,,,,
rtgstrg,rtgstrg,,12,Trials,77,77_non-creaky.wav,http://127.0.0.1:5500/data/audio/77_non-creaky.wav,85.png,180.png,left,85.png,180.png,right,180.png,no,456,rtsheydhneyrthn,2026-01-27T18:59:58.226Z,,,,,,,,,,,,,,,,,,,,,,,,,,
rtgstrg,rtgstrg,,11,Trials,121,121_non-creaky.wav,http://127.0.0.1:5500/data/audio/121_non-creaky.wav,150.png,55.png,right,55.png,150.png,left,55.png,no,361,rtsheydhneyrthn,2026-01-27T18:59:55.562Z,,,,,,,,,,,,,,,,,,,,,,,,,,
rtgstrg,rtgstrg,,13,Trials,53,53_non-creaky.wav,http://127.0.0.1:5500/data/audio/53_non-creaky.wav,56.png,151.png,left,56.png,151.png,left,56.png,yes,297,rtsheydhneyrthn,2026-01-27T19:00:01.124Z,,,,,,,,,,,,,,,,,,,,,,,,,,
rtgstrg,rtgstrg,,14,Trials,240,240_creaky.wav,http://127.0.0.1:5500/data/audio/240_creaky.wav,109.png,14.png,right,14.png,109.png,right,109.png,yes,428,rtsheydhneyrthn,2026-01-27T19:00:03.802Z,,,,,,,,,,,,,,,,,,,,,,,,,,
rtgstrg,rtgstrg,,15,Trials,274,274_creaky.wav,http://127.0.0.1:5500/data/audio/274_creaky.wav,162.png,67.png,left,162.png,67.png,left,162.png,yes,408,rtsheydhneyrthn,2026-01-27T19:00:07.206Z,,,,,,,,,,,,,,,,,,,,,,,,,,
rtgstrg,rtgstrg,,16,Trials,161,161_creaky.wav,http://127.0.0.1:5500/data/audio/161_creaky.wav,16.png,112.png,right,112.png,16.png,right,16.png,yes,457,rtsheydhneyrthn,2026-01-27T19:00:10.400Z,,,,,,,,,,,,,,,,,,,,,,,,,,
rtgstrg,rtgstrg,,17,Trials,191,191_creaky.wav,http://127.0.0.1:5500/data/audio/191_creaky.wav,50.png,145.png,right,145.png,50.png,left,145.png,no,430,rtsheydhneyrthn,2026-01-27T19:00:13.217Z,,,,,,,,,,,,,,,,,,,,,,,,,,
rtgstrg,rtgstrg,,18,Trials,266,266_creaky.wav,http://127.0.0.1:5500/data/audio/266_creaky.wav,151.png,56.png,right,56.png,151.png,right,151.png,yes,301,rtsheydhneyrthn,2026-01-27T19:00:15.974Z,,,,,,,,,,,,,,,,,,,,,,,,,,
rtgstrg,rtgstrg,,19,Trials,197,197_creaky.wav,http://127.0.0.1:5500/data/audio/197_creaky.wav,56.png,151.png,right,151.png,56.png,left,151.png,no,334,rtsheydhneyrthn,2026-01-27T19:00:18.674Z,,,,,,,,,,,,,,,,,,,,,,,,,,
rtgstrg,rtgstrg,,20,Trials,248,248_creaky.wav,http://127.0.0.1:5500/data/audio/248_creaky.wav,121.png,26.png,left,121.png,26.png,right,26.png,no,400,rtsheydhneyrthn,2026-01-27T19:00:21.651Z,,,,,,,,,,,,,,,,,,,,,,,,,,
rtgstrg,rtgstrg,,21,Trials,40,40_non-creaky.wav,http://127.0.0.1:5500/data/audio/40_non-creaky.wav,42.png,137.png,right,137.png,42.png,left,137.png,no,286,rtsheydhneyrthn,2026-01-27T19:00:24.167Z,,,,,,,,,,,,,,,,,,,,,,,,,,
rtgstrg,rtgstrg,,22,Trials,253,253_creaky.wav,http://127.0.0.1:5500/data/audio/253_creaky.wav,131.png,36.png,right,36.png,131.png,right,131.png,yes,347,rtsheydhneyrthn,2026-01-27T19:00:27.073Z,,,,,,,,,,,,,,,,,,,,,,,,,,
rtgstrg,rtgstrg,,23,Trials,117,117_non-creaky.wav,http://127.0.0.1:5500/data/audio/117_non-creaky.wav,146.png,51.png,right,51.png,146.png,left,51.png,no,352,rtsheydhneyrthn,2026-01-27T19:00:29.707Z,,,,,,,,,,,,,,,,,,,,,,,,,,
rtgstrg,rtgstrg,,24,Trials,23,23_non-creaky.wav,http://127.0.0.1:5500/data/audio/23_non-creaky.wav,23.png,118.png,left,23.png,118.png,right,118.png,no,308,rtsheydhneyrthn,2026-01-27T19:00:32.507Z,,,,,,,,,,,,,,,,,,,,,,,,,,
rtgstrg,rtgstrg,,25,Trials,95,95_non-creaky.wav,http://127.0.0.1:5500/data/audio/95_non-creaky.wav,107.png,12.png,left,107.png,12.png,left,107.png,yes,286,rtsheydhneyrthn,2026-01-27T19:00:35.138Z,,,,,,,,,,,,,,,,,,,,,,,,,,
rtgstrg,rtgstrg,,26,Trials,225,225_creaky.wav,http://127.0.0.1:5500/data/audio/225_creaky.wav,81.png,176.png,right,176.png,81.png,right,81.png,yes,278,rtsheydhneyrthn,2026-01-27T19:00:37.890Z,,,,,,,,,,,,,,,,,,,,,,,,,,
rtgstrg,rtgstrg,,27,Trials,5,5_non-creaky.wav,http://127.0.0.1:5500/data/audio/5_non-creaky.wav,4.png,99.png,right,99.png,4.png,left,99.png,no,278,rtsheydhneyrthn,2026-01-27T19:00:40.458Z,,,,,,,,,,,,,,,,,,,,,,,,,,
rtgstrg,rtgstrg,,28,Trials,273,273_creaky.wav,http://127.0.0.1:5500/data/audio/273_creaky.wav,160.png,65.png,right,65.png,160.png,right,160.png,yes,315,rtsheydhneyrthn,2026-01-27T19:00:43.406Z,,,,,,,,,,,,,,,,,,,,,,,,,,
rtgstrg,rtgstrg,,,AttentionCheck,,,,,,,,,,,,,rtsheydhneyrthn,2026-01-27T19:00:46.547Z,,,,,,,,,,,,,,,,,,,,,,,,,,
rtgstrg,rtgstrg,,29,Trials,131,131_non-creaky.wav,http://127.0.0.1:5500/data/audio/131_non-creaky.wav,163.png,68.png,right,68.png,163.png,left,68.png,no,379,rtsheydhneyrthn,2026-01-27T19:00:50.941Z,,,,,,,,,,,,,,,,,,,,,,,,,,
rtgstrg,rtgstrg,,30,Trials,241,241_creaky.wav,http://127.0.0.1:5500/data/audio/241_creaky.wav,112.png,16.png,right,16.png,112.png,right,112.png,yes,387,rtsheydhneyrthn,2026-01-27T19:00:53.989Z,,,,,,,,,,,,,,,,,,,,,,,,,,
rtgstrg,rtgstrg,,31,Trials,156,156_creaky.wav,http://127.0.0.1:5500/data/audio/156_creaky.wav,12.png,107.png,right,107.png,12.png,left,107.png,no,448,rtsheydhneyrthn,2026-01-27T19:00:57.020Z,,,,,,,,,,,,,,,,,,,,,,,,,,
rtgstrg,rtgstrg,,32,Trials,124,124_non-creaky.wav,http://127.0.0.1:5500/data/audio/124_non-creaky.wav,155.png,60.png,right,60.png,155.png,right,155.png,yes,459,rtsheydhneyrthn,2026-01-27T19:00:59.644Z,,,,,,,,,,,,,,,,,,,,,,,,,,
rtgstrg,rtgstrg,,33,Trials,96,96_non-creaky.wav,http://127.0.0.1:5500/data/audio/96_non-creaky.wav,109.png,14.png,right,14.png,109.png,right,109.png,yes,313,rtsheydhneyrthn,2026-01-27T19:01:02.390Z,,,,,,,,,,,,,,,,,,,,,,,,,,
rtgstrg,rtgstrg,,34,Trials,244,244_creaky.wav,http://127.0.0.1:5500/data/audio/244_creaky.wav,117.png,22.png,left,117.png,22.png,left,117.png,yes,256,rtsheydhneyrthn,2026-01-27T19:01:05.500Z,,,,,,,,,,,,,,,,,,,,,,,,,,
rtgstrg,rtgstrg,,35,Trials,223,223_creaky.wav,http://127.0.0.1:5500/data/audio/223_creaky.wav,87.png,182.png,right,182.png,87.png,right,87.png,yes,282,rtsheydhneyrthn,2026-01-27T19:01:08.459Z,,,,,,,,,,,,,,,,,,,,,,,,,,
rtgstrg,rtgstrg,,36,Trials,190,190_creaky.wav,http://127.0.0.1:5500/data/audio/190_creaky.wav,48.png,143.png,left,48.png,143.png,left,48.png,yes,433,rtsheydhneyrthn,2026-01-27T19:01:11.433Z,,,,,,,,,,,,,,,,,,,,,,,,,,
rtgstrg,rtgstrg,,37,Trials,243,243_creaky.wav,http://127.0.0.1:5500/data/audio/243_creaky.wav,115.png,20.png,right,20.png,115.png,right,115.png,yes,395,rtsheydhneyrthn,2026-01-27T19:01:14.474Z,,,,,,,,,,,,,,,,,,,,,,,,,,
rtgstrg,rtgstrg,,38,Trials,270,270_creaky.wav,http://127.0.0.1:5500/data/audio/270_creaky.wav,157.png,62.png,left,157.png,62.png,left,157.png,yes,505,rtsheydhneyrthn,2026-01-27T19:01:17.236Z,,,,,,,,,,,,,,,,,,,,,,,,,,
rtgstrg,rtgstrg,,39,Trials,211,211_creaky.wav,http://127.0.0.1:5500/data/audio/211_creaky.wav,74.png,169.png,left,74.png,169.png,right,169.png,no,308,rtsheydhneyrthn,2026-01-27T19:01:20.356Z,,,,,,,,,,,,,,,,,,,,,,,,,,
rtgstrg,rtgstrg,,40,Trials,35,35_non-creaky.wav,http://127.0.0.1:5500/data/audio/35_non-creaky.wav,34.png,129.png,right,129.png,34.png,left,129.png,no,397,rtsheydhneyrthn,2026-01-27T19:01:23.038Z,,,,,,,,,,,,,,,,,,,,,,,,,,
rtgstrg,rtgstrg,,41,Trials,74,74_non-creaky.wav,http://127.0.0.1:5500/data/audio/74_non-creaky.wav,82.png,177.png,left,82.png,177.png,right,177.png,no,312,rtsheydhneyrthn,2026-01-27T19:01:25.650Z,,,,,,,,,,,,,,,,,,,,,,,,,,
rtgstrg,rtgstrg,,42,Trials,239,239_creaky.wav,http://127.0.0.1:5500/data/audio/239_creaky.wav,107.png,12.png,left,107.png,12.png,left,107.png,yes,384,rtsheydhneyrthn,2026-01-27T19:01:28.785Z,,,,,,,,,,,,,,,,,,,,,,,,,,
rtgstrg,rtgstrg,,43,Trials,6,6_non-creaky.wav,http://127.0.0.1:5500/data/audio/6_non-creaky.wav,6.png,101.png,right,101.png,6.png,right,6.png,yes,352,rtsheydhneyrthn,2026-01-27T19:01:31.622Z,,,,,,,,,,,,,,,,,,,,,,,,,,
rtgstrg,rtgstrg,,45,Trials,24,24_non-creaky.wav,http://127.0.0.1:5500/data/audio/24_non-creaky.wav,24.png,119.png,right,119.png,24.png,right,24.png,yes,486,rtsheydhneyrthn,2026-01-27T19:01:37.297Z,,,,,,,,,,,,,,,,,,,,,,,,,,
rtgstrg,rtgstrg,,44,Trials,181,181_creaky.wav,http://127.0.0.1:5500/data/audio/181_creaky.wav,36.png,131.png,right,131.png,36.png,left,131.png,no,322,rtsheydhneyrthn,2026-01-27T19:01:34.588Z,,,,,,,,,,,,,,,,,,,,,,,,,,
rtgstrg,rtgstrg,,46,Trials,122,122_non-creaky.wav,http://127.0.0.1:5500/data/audio/122_non-creaky.wav,151.png,56.png,right,56.png,151.png,left,56.png,no,316,rtsheydhneyrthn,2026-01-27T19:01:40.038Z,,,,,,,,,,,,,,,,,,,,,,,,,,
rtgstrg,rtgstrg,,47,Trials,250,250_creaky.wav,http://127.0.0.1:5500/data/audio/250_creaky.wav,125.png,30.png,right,30.png,125.png,right,125.png,yes,311,rtsheydhneyrthn,2026-01-27T19:01:42.814Z,,,,,,,,,,,,,,,,,,,,,,,,,,
rtgstrg,rtgstrg,,48,Trials,216,216_creaky.wav,http://127.0.0.1:5500/data/audio/216_creaky.wav,80.png,175.png,right,175.png,80.png,left,175.png,no,382,rtsheydhneyrthn,2026-01-27T19:01:45.797Z,,,,,,,,,,,,,,,,,,,,,,,,,,
rtgstrg,rtgstrg,,49,Trials,222,222_creaky.wav,http://127.0.0.1:5500/data/audio/222_creaky.wav,86.png,181.png,left,86.png,181.png,right,181.png,no,328,rtsheydhneyrthn,2026-01-27T19:01:48.691Z,,,,,,,,,,,,,,,,,,,,,,,,,,
rtgstrg,rtgstrg,,50,Trials,46,46_non-creaky.wav,http://127.0.0.1:5500/data/audio/46_non-creaky.wav,48.png,143.png,right,143.png,48.png,left,143.png,no,436,rtsheydhneyrthn,2026-01-27T19:01:51.494Z,,,,,,,,,,,,,,,,,,,,,,,,,,
rtgstrg,rtgstrg,,51,Trials,199,199_creaky.wav,http://127.0.0.1:5500/data/audio/199_creaky.wav,60.png,155.png,right,155.png,60.png,right,60.png,yes,446,rtsheydhneyrthn,2026-01-27T19:01:54.095Z,,,,,,,,,,,,,,,,,,,,,,,,,,
rtgstrg,rtgstrg,,52,Trials,10,10_non-creaky.wav,http://127.0.0.1:5500/data/audio/10_non-creaky.wav,10.png,104.png,left,10.png,104.png,left,10.png,yes,353,rtsheydhneyrthn,2026-01-27T19:01:56.743Z,,,,,,,,,,,,,,,,,,,,,,,,,,
rtgstrg,rtgstrg,,53,Trials,226,226_creaky.wav,http://127.0.0.1:5500/data/audio/226_creaky.wav,82.png,177.png,left,82.png,177.png,right,177.png,no,730,rtsheydhneyrthn,2026-01-27T19:01:59.866Z,,,,,,,,,,,,,,,,,,,,,,,,,,
rtgstrg,rtgstrg,,54,Trials,196,196_creaky.wav,http://127.0.0.1:5500/data/audio/196_creaky.wav,55.png,150.png,right,150.png,55.png,right,55.png,yes,368,rtsheydhneyrthn,2026-01-27T19:02:02.743Z,,,,,,,,,,,,,,,,,,,,,,,,,,
rtgstrg,rtgstrg,,55,Trials,154,154_creaky.wav,http://127.0.0.1:5500/data/audio/154_creaky.wav,10.png,104.png,left,10.png,104.png,right,104.png,no,3076,rtsheydhneyrthn,2026-01-27T19:02:08.420Z,,,,,,,,,,,,,,,,,,,,,,,,,,
rtgstrg,rtgstrg,,56,Trials,157,157_creaky.wav,http://127.0.0.1:5500/data/audio/157_creaky.wav,12.png,107.png,right,107.png,12.png,right,12.png,yes,1556,rtsheydhneyrthn,2026-01-27T19:02:12.664Z,,,,,,,,,,,,,,,,,,,,,,,,,,
rtgstrg,rtgstrg,,,AttentionCheck,,,,,,,,,,,,,rtsheydhneyrthn,2026-01-27T19:02:17.085Z,,,,,,,,,,,,,,,,,,,,,,,,,,
rtgstrg,rtgstrg,,57,Trials,93,93_non-creaky.wav,http://127.0.0.1:5500/data/audio/93_non-creaky.wav,104.png,9.png,left,104.png,9.png,right,9.png,no,481,rtsheydhneyrthn,2026-01-27T19:02:20.942Z,,,,,,,,,,,,,,,,,,,,,,,,,,
rtgstrg,rtgstrg,,58,Trials,65,65_non-creaky.wav,http://127.0.0.1:5500/data/audio/65_non-creaky.wav,72.png,167.png,right,167.png,72.png,left,167.png,no,921,rtsheydhneyrthn,2026-01-27T19:02:24.441Z,,,,,,,,,,,,,,,,,,,,,,,,,,
rtgstrg,rtgstrg,,59,Trials,137,137_non-creaky.wav,http://127.0.0.1:5500/data/audio/137_non-creaky.wav,175.png,80.png,left,175.png,80.png,right,80.png,no,292,rtsheydhneyrthn,2026-01-27T19:02:27.124Z,,,,,,,,,,,,,,,,,,,,,,,,,,
rtgstrg,rtgstrg,,60,Trials,107,107_non-creaky.wav,http://127.0.0.1:5500/data/audio/107_non-creaky.wav,127.png,32.png,left,127.png,32.png,right,32.png,no,382,rtsheydhneyrthn,2026-01-27T19:02:30.572Z,,,,,,,,,,,,,,,,,,,,,,,,,,
rtgstrg,rtgstrg,,61,Trials,271,271_creaky.wav,http://127.0.0.1:5500/data/audio/271_creaky.wav,158.png,63.png,right,63.png,158.png,left,63.png,no,301,rtsheydhneyrthn,2026-01-27T19:02:33.851Z,,,,,,,,,,,,,,,,,,,,,,,,,,
rtgstrg,rtgstrg,,62,Trials,166,166_creaky.wav,http://127.0.0.1:5500/data/audio/166_creaky.wav,22.png,117.png,right,117.png,22.png,right,22.png,yes,541,rtsheydhneyrthn,2026-01-27T19:02:38.276Z,,,,,,,,,,,,,,,,,,,,,,,,,,
rtgstrg,rtgstrg,,63,Trials,282,282_creaky.wav,http://127.0.0.1:5500/data/audio/282_creaky.wav,176.png,81.png,right,81.png,176.png,left,81.png,no,505,rtsheydhneyrthn,2026-01-27T19:02:41.362Z,,,,,,,,,,,,,,,,,,,,,,,,,,
rtgstrg,rtgstrg,,64,Trials,52,52_non-creaky.wav,http://127.0.0.1:5500/data/audio/52_non-creaky.wav,55.png,150.png,right,150.png,55.png,right,55.png,yes,712,rtsheydhneyrthn,2026-01-27T19:02:48.790Z,,,,,,,,,,,,,,,,,,,,,,,,,,
rtgstrg,rtgstrg,,65,Trials,99,99_non-creaky.wav,http://127.0.0.1:5500/data/audio/99_non-creaky.wav,115.png,20.png,left,115.png,20.png,right,20.png,no,2962,rtsheydhneyrthn,2026-01-27T19:02:54.528Z,,,,,,,,,,,,,,,,,,,,,,,,,,
rtgstrg,rtgstrg,,66,Trials,150,150_creaky.wav,http://127.0.0.1:5500/data/audio/150_creaky.wav,6.png,101.png,left,6.png,101.png,right,101.png,no,3831,rtsheydhneyrthn,2026-01-27T19:03:01.465Z,,,,,,,,,,,,,,,,,,,,,,,,,,
rtgstrg,rtgstrg,,67,Trials,235,235_creaky.wav,http://127.0.0.1:5500/data/audio/235_creaky.wav,101.png,6.png,right,6.png,101.png,right,101.png,yes,99154,rtsheydhneyrthn,2026-01-27T19:04:43.030Z,,,,,,,,,,,,,,,,,,,,,,,,,,
rtgstrg,rtgstrg,,68,Trials,245,245_creaky.wav,http://127.0.0.1:5500/data/audio/245_creaky.wav,118.png,23.png,left,118.png,23.png,left,118.png,yes,572,rtsheydhneyrthn,2026-01-27T19:04:46.422Z,,,,,,,,,,,,,,,,,,,,,,,,,,
rtgstrg,rtgstrg,,69,Trials,146,146_creaky.wav,http://127.0.0.1:5500/data/audio/146_creaky.wav,1.png,96.png,right,96.png,1.png,right,1.png,yes,81,rtsheydhneyrthn,2026-01-27T19:04:49.160Z,,,,,,,,,,,,,,,,,,,,,,,,,,
rtgstrg,rtgstrg,,70,Trials,165,165_creaky.wav,http://127.0.0.1:5500/data/audio/165_creaky.wav,20.png,115.png,left,20.png,115.png,right,115.png,no,953,rtsheydhneyrthn,2026-01-27T19:04:53.263Z,,,,,,,,,,,,,,,,,,,,,,,,,,
rtgstrg,rtgstrg,,71,Trials,220,220_creaky.wav,http://127.0.0.1:5500/data/audio/220_creaky.wav,84.png,179.png,right,179.png,84.png,right,84.png,yes,475,rtsheydhneyrthn,2026-01-27T19:05:07.897Z,,,,,,,,,,,,,,,,,,,,,,,,,,
rtgstrg,rtgstrg,,72,Trials,198,198_creaky.wav,http://127.0.0.1:5500/data/audio/198_creaky.wav,57.png,152.png,left,57.png,152.png,left,57.png,yes,639,rtsheydhneyrthn,2026-01-27T19:05:11.330Z,,,,,,,,,,,,,,,,,,,,,,,,,,
rtgstrg,rtgstrg,,73,Trials,208,208_creaky.wav,http://127.0.0.1:5500/data/audio/208_creaky.wav,70.png,165.png,left,70.png,165.png,right,165.png,no,729,rtsheydhneyrthn,2026-01-27T19:05:14.588Z,,,,,,,,,,,,,,,,,,,,,,,,,,
rtgstrg,rtgstrg,,74,Trials,204,204_creaky.wav,http://127.0.0.1:5500/data/audio/204_creaky.wav,65.png,160.png,right,160.png,65.png,right,65.png,yes,959,rtsheydhneyrthn,2026-01-27T19:05:18.471Z,,,,,,,,,,,,,,,,,,,,,,,,,,
rtgstrg,rtgstrg,,75,Trials,4,4_non-creaky.wav,http://127.0.0.1:5500/data/audio/4_non-creaky.wav,4.png,99.png,left,4.png,99.png,right,99.png,no,28168,rtsheydhneyrthn,2026-01-27T19:06:17.958Z,,,,,,,,,,,,,,,,,,,,,,,,,,
rtgstrg,rtgstrg,,76,Trials,255,255_creaky.wav,http://127.0.0.1:5500/data/audio/255_creaky.wav,137.png,42.png,left,137.png,42.png,left,137.png,yes,424,rtsheydhneyrthn,2026-01-27T19:06:20.733Z,,,,,,,,,,,,,,,,,,,,,,,,,,
rtgstrg,rtgstrg,,77,Trials,37,37_non-creaky.wav,http://127.0.0.1:5500/data/audio/37_non-creaky.wav,36.png,131.png,left,36.png,131.png,right,131.png,no,514,rtsheydhneyrthn,2026-01-27T19:06:23.966Z,,,,,,,,,,,,,,,,,,,,,,,,,,
rtgstrg,rtgstrg,,78,Trials,170,170_creaky.wav,http://127.0.0.1:5500/data/audio/170_creaky.wav,26.png,121.png,right,121.png,26.png,right,26.png,yes,411,rtsheydhneyrthn,2026-01-27T19:06:27.562Z,,,,,,,,,,,,,,,,,,,,,,,,,,
rtgstrg,rtgstrg,,80,Trials,58,58_non-creaky.wav,http://127.0.0.1:5500/data/audio/58_non-creaky.wav,63.png,158.png,right,158.png,63.png,right,63.png,yes,1674,rtsheydhneyrthn,2026-01-27T19:06:35.599Z,,,,,,,,,,,,,,,,,,,,,,,,,,
rtgstrg,rtgstrg,,79,Trials,194,194_creaky.wav,http://127.0.0.1:5500/data/audio/194_creaky.wav,53.png,148.png,left,53.png,148.png,right,148.png,no,661,rtsheydhneyrthn,2026-01-27T19:06:31.124Z,,,,,,,,,,,,,,,,,,,,,,,,,,
rtgstrg,rtgstrg,,81,Trials,174,174_creaky.wav,http://127.0.0.1:5500/data/audio/174_creaky.wav,30.png,125.png,right,125.png,30.png,left,125.png,no,248,rtsheydhneyrthn,2026-01-27T19:06:38.837Z,,,,,,,,,,,,,,,,,,,,,,,,,,
rtgstrg,rtgstrg,,82,Trials,246,246_creaky.wav,http://127.0.0.1:5500/data/audio/246_creaky.wav,119.png,24.png,left,119.png,24.png,right,24.png,no,381,rtsheydhneyrthn,2026-01-27T19:06:50.988Z,,,,,,,,,,,,,,,,,,,,,,,,,,
rtgstrg,rtgstrg,,83,Trials,149,149_creaky.wav,http://127.0.0.1:5500/data/audio/149_creaky.wav,4.png,99.png,left,4.png,99.png,right,99.png,no,1267,rtsheydhneyrthn,2026-01-27T19:06:54.825Z,,,,,,,,,,,,,,,,,,,,,,,,,,
rtgstrg,rtgstrg,,84,Trials,205,205_creaky.wav,http://127.0.0.1:5500/data/audio/205_creaky.wav,67.png,162.png,left,67.png,162.png,right,162.png,no,376,rtsheydhneyrthn,2026-01-27T19:06:58.381Z,,,,,,,,,,,,,,,,,,,,,,,,,,
rtgstrg,rtgstrg,,,AttentionCheck,,,,,,,,,,,,,rtsheydhneyrthn,2026-01-27T19:07:01.639Z,,,,,,,,,,,,,,,,,,,,,,,,,,
rtgstrg,rtgstrg,,85,Trials,219,219_creaky.wav,http://127.0.0.1:5500/data/audio/219_creaky.wav,83.png,178.png,left,83.png,178.png,right,178.png,no,330,rtsheydhneyrthn,2026-01-27T19:07:06.855Z,,,,,,,,,,,,,,,,,,,,,,,,,,
rtgstrg,rtgstrg,,86,Trials,218,218_creaky.wav,http://127.0.0.1:5500/data/audio/218_creaky.wav,82.png,177.png,left,82.png,177.png,left,82.png,yes,381,rtsheydhneyrthn,2026-01-27T19:07:09.818Z,,,,,,,,,,,,,,,,,,,,,,,,,,
rtgstrg,rtgstrg,,87,Trials,228,228_creaky.wav,http://127.0.0.1:5500/data/audio/228_creaky.wav,84.png,179.png,left,84.png,179.png,left,84.png,yes,232,rtsheydhneyrthn,2026-01-27T19:07:13.370Z,,,,,,,,,,,,,,,,,,,,,,,,,,
rtgstrg,rtgstrg,,88,Trials,263,263_creaky.wav,http://127.0.0.1:5500/data/audio/263_creaky.wav,148.png,53.png,left,148.png,53.png,left,148.png,yes,311,rtsheydhneyrthn,2026-01-27T19:07:16.021Z,,,,,,,,,,,,,,,,,,,,,,,,,,
rtgstrg,rtgstrg,,89,Trials,188,188_creaky.wav,http://127.0.0.1:5500/data/audio/188_creaky.wav,46.png,141.png,right,141.png,46.png,right,46.png,yes,375,rtsheydhneyrthn,2026-01-27T19:07:18.504Z,,,,,,,,,,,,,,,,,,,,,,,,,,
rtgstrg,rtgstrg,,90,Trials,159,159_creaky.wav,http://127.0.0.1:5500/data/audio/159_creaky.wav,14.png,109.png,right,109.png,14.png,right,14.png,yes,1079,rtsheydhneyrthn,2026-01-27T19:07:21.544Z,,,,,,,,,,,,,,,,,,,,,,,,,,
rtgstrg,rtgstrg,,91,Trials,285,285_creaky.wav,http://127.0.0.1:5500/data/audio/285_creaky.wav,179.png,84.png,left,179.png,84.png,left,179.png,yes,108,rtsheydhneyrthn,2026-01-27T19:07:24.208Z,,,,,,,,,,,,,,,,,,,,,,,,,,
rtgstrg,rtgstrg,,92,Trials,215,215_creaky.wav,http://127.0.0.1:5500/data/audio/215_creaky.wav,74.png,169.png,right,169.png,74.png,right,74.png,yes,213,rtsheydhneyrthn,2026-01-27T19:07:28.392Z,,,,,,,,,,,,,,,,,,,,,,,,,,
rtgstrg,rtgstrg,,93,Trials,51,51_non-creaky.wav,http://127.0.0.1:5500/data/audio/51_non-creaky.wav,54.png,149.png,left,54.png,149.png,left,54.png,yes,326,rtsheydhneyrthn,2026-01-27T19:07:31.138Z,,,,,,,,,,,,,,,,,,,,,,,,,,
rtgstrg,rtgstrg,,94,Trials,237,237_creaky.wav,http://127.0.0.1:5500/data/audio/237_creaky.wav,104.png,9.png,right,9.png,104.png,right,104.png,yes,1849,rtsheydhneyrthn,2026-01-27T19:07:35.358Z,,,,,,,,,,,,,,,,,,,,,,,,,,
rtgstrg,rtgstrg,,95,Trials,287,287_creaky.wav,http://127.0.0.1:5500/data/audio/287_creaky.wav,181.png,86.png,left,181.png,86.png,right,86.png,no,1980,rtsheydhneyrthn,2026-01-27T19:07:40.853Z,,,,,,,,,,,,,,,,,,,,,,,,,,
rtgstrg,rtgstrg,,96,Trials,104,104_non-creaky.wav,http://127.0.0.1:5500/data/audio/104_non-creaky.wav,121.png,26.png,right,26.png,121.png,right,121.png,yes,831,rtsheydhneyrthn,2026-01-27T19:07:44.748Z,,,,,,,,,,,,,,,,,,,,,,,,,,
rtgstrg,rtgstrg,,97,Trials,90,90_non-creaky.wav,http://127.0.0.1:5500/data/audio/90_non-creaky.wav,99.png,4.png,left,99.png,4.png,left,99.png,yes,261,rtsheydhneyrthn,2026-01-27T19:07:47.400Z,,,,,,,,,,,,,,,,,,,,,,,,,,
rtgstrg,rtgstrg,,98,Trials,81,81_non-creaky.wav,http://127.0.0.1:5500/data/audio/81_non-creaky.wav,81.png,176.png,left,81.png,176.png,left,81.png,yes,340,rtsheydhneyrthn,2026-01-27T19:07:49.746Z,,,,,,,,,,,,,,,,,,,,,,,,,,
rtgstrg,rtgstrg,,99,Trials,206,206_creaky.wav,http://127.0.0.1:5500/data/audio/206_creaky.wav,68.png,163.png,left,68.png,163.png,left,68.png,yes,62,rtsheydhneyrthn,2026-01-27T19:07:51.975Z,,,,,,,,,,,,,,,,,,,,,,,,,,
rtgstrg,rtgstrg,,100,Trials,267,267_creaky.wav,http://127.0.0.1:5500/data/audio/267_creaky.wav,152.png,57.png,right,57.png,152.png,right,152.png,yes,941,rtsheydhneyrthn,2026-01-27T19:07:55.337Z,,,,,,,,,,,,,,,,,,,,,,,,,,
rtgstrg,rtgstrg,,101,Trials,3,3_non-creaky.wav,http://127.0.0.1:5500/data/audio/3_non-creaky.wav,3.png,98.png,left,3.png,98.png,right,98.png,no,3709,rtsheydhneyrthn,2026-01-27T19:08:03.037Z,,,,,,,,,,,,,,,,,,,,,,,,,,
rtgstrg,rtgstrg,,102,Trials,69,69_non-creaky.wav,http://127.0.0.1:5500/data/audio/69_non-creaky.wav,72.png,167.png,left,72.png,167.png,left,72.png,yes,181,rtsheydhneyrthn,2026-01-27T19:08:06.004Z,,,,,,,,,,,,,,,,,,,,,,,,,,
rtgstrg,rtgstrg,,103,Trials,20,20_non-creaky.wav,http://127.0.0.1:5500/data/audio/20_non-creaky.wav,20.png,115.png,right,115.png,20.png,right,20.png,yes,155,rtsheydhneyrthn,2026-01-27T19:08:08.229Z,,,,,,,,,,,,,,,,,,,,,,,,,,
rtgstrg,rtgstrg,,104,Trials,173,173_creaky.wav,http://127.0.0.1:5500/data/audio/173_creaky.wav,28.png,123.png,left,28.png,123.png,left,28.png,yes,1561,rtsheydhneyrthn,2026-01-27T19:08:11.909Z,,,,,,,,,,,,,,,,,,,,,,,,,,
rtgstrg,rtgstrg,,105,Trials,12,12_non-creaky.wav,http://127.0.0.1:5500/data/audio/12_non-creaky.wav,12.png,107.png,right,107.png,12.png,right,12.png,yes,113,rtsheydhneyrthn,2026-01-27T19:08:15.929Z,,,,,,,,,,,,,,,,,,,,,,,,,,
rtgstrg,rtgstrg,,106,Trials,242,242_creaky.wav,http://127.0.0.1:5500/data/audio/242_creaky.wav,113.png,18.png,left,113.png,18.png,right,18.png,no,960,rtsheydhneyrthn,2026-01-27T19:08:19.812Z,,,,,,,,,,,,,,,,,,,,,,,,,,
rtgstrg,rtgstrg,,107,Trials,151,151_creaky.wav,http://127.0.0.1:5500/data/audio/151_creaky.wav,7.png,101.png,right,101.png,7.png,right,7.png,yes,458,rtsheydhneyrthn,2026-01-27T19:08:23.012Z,,,,,,,,,,,,,,,,,,,,,,,,,,
rtgstrg,rtgstrg,,108,Trials,7,7_non-creaky.wav,http://127.0.0.1:5500/data/audio/7_non-creaky.wav,7.png,101.png,left,7.png,101.png,left,7.png,yes,299,rtsheydhneyrthn,2026-01-27T19:08:26.150Z,,,,,,,,,,,,,,,,,,,,,,,,,,
rtgstrg,rtgstrg,,109,Trials,57,57_non-creaky.wav,http://127.0.0.1:5500/data/audio/57_non-creaky.wav,62.png,157.png,right,157.png,62.png,right,62.png,yes,478,rtsheydhneyrthn,2026-01-27T19:08:29.087Z,,,,,,,,,,,,,,,,,,,,,,,,,,
rtgstrg,rtgstrg,,110,Trials,26,26_non-creaky.wav,http://127.0.0.1:5500/data/audio/26_non-creaky.wav,26.png,121.png,left,26.png,121.png,right,121.png,no,953,rtsheydhneyrthn,2026-01-27T19:08:32.666Z,,,,,,,,,,,,,,,,,,,,,,,,,,
rtgstrg,rtgstrg,,111,Trials,144,144_non-creaky.wav,http://127.0.0.1:5500/data/audio/144_non-creaky.wav,182.png,87.png,right,87.png,182.png,right,182.png,yes,382,rtsheydhneyrthn,2026-01-27T19:08:35.178Z,,,,,,,,,,,,,,,,,,,,,,,,,,
rtgstrg,rtgstrg,,112,Trials,132,132_non-creaky.wav,http://127.0.0.1:5500/data/audio/132_non-creaky.wav,164.png,69.png,right,69.png,164.png,right,164.png,yes,784,rtsheydhneyrthn,2026-01-27T19:08:39.091Z,,,,,,,,,,,,,,,,,,,,,,,,,,
rtgstrg,rtgstrg,,,AttentionCheck,,,,,,,,,,,,,rtsheydhneyrthn,2026-01-27T19:08:43.031Z,,,,,,,,,,,,,,,,,,,,,,,,,,
rtgstrg,rtgstrg,,113,Trials,30,30_non-creaky.wav,http://127.0.0.1:5500/data/audio/30_non-creaky.wav,30.png,125.png,left,30.png,125.png,left,30.png,yes,51,rtsheydhneyrthn,2026-01-27T19:08:46.860Z,,,,,,,,,,,,,,,,,,,,,,,,,,
rtgstrg,rtgstrg,,114,Trials,38,38_non-creaky.wav,http://127.0.0.1:5500/data/audio/38_non-creaky.wav,40.png,135.png,left,40.png,135.png,left,40.png,yes,98,rtsheydhneyrthn,2026-01-27T19:08:49.839Z,,,,,,,,,,,,,,,,,,,,,,,,,,
rtgstrg,rtgstrg,,115,Trials,147,147_creaky.wav,http://127.0.0.1:5500/data/audio/147_creaky.wav,3.png,98.png,left,3.png,98.png,left,3.png,yes,1678,rtsheydhneyrthn,2026-01-27T19:08:54.248Z,,,,,,,,,,,,,,,,,,,,,,,,,,
rtgstrg,rtgstrg,,116,Trials,114,114_non-creaky.wav,http://127.0.0.1:5500/data/audio/114_non-creaky.wav,142.png,47.png,left,142.png,47.png,left,142.png,yes,365,rtsheydhneyrthn,2026-01-27T19:08:57.314Z,,,,,,,,,,,,,,,,,,,,,,,,,,
rtgstrg,rtgstrg,,117,Trials,178,178_creaky.wav,http://127.0.0.1:5500/data/audio/178_creaky.wav,34.png,129.png,left,34.png,129.png,left,34.png,yes,1116,rtsheydhneyrthn,2026-01-27T19:09:01.485Z,,,,,,,,,,,,,,,,,,,,,,,,,,
rtgstrg,rtgstrg,,118,Trials,148,148_creaky.wav,http://127.0.0.1:5500/data/audio/148_creaky.wav,4.png,99.png,left,4.png,99.png,left,4.png,yes,1548,rtsheydhneyrthn,2026-01-27T19:09:05.893Z,,,,,,,,,,,,,,,,,,,,,,,,,,
rtgstrg,rtgstrg,,119,Trials,169,169_creaky.wav,http://127.0.0.1:5500/data/audio/169_creaky.wav,25.png,120.png,left,25.png,120.png,left,25.png,yes,284,rtsheydhneyrthn,2026-01-27T19:09:08.693Z,,,,,,,,,,,,,,,,,,,,,,,,,,
rtgstrg,rtgstrg,,120,Trials,152,152_creaky.wav,http://127.0.0.1:5500/data/audio/152_creaky.wav,6.png,101.png,right,101.png,6.png,right,6.png,yes,204,rtsheydhneyrthn,2026-01-27T19:09:11.927Z,,,,,,,,,,,,,,,,,,,,,,,,,,
rtgstrg,rtgstrg,,121,Trials,207,207_creaky.wav,http://127.0.0.1:5500/data/audio/207_creaky.wav,69.png,164.png,left,69.png,164.png,left,69.png,yes,476,rtsheydhneyrthn,2026-01-27T19:09:15.857Z,,,,,,,,,,,,,,,,,,,,,,,,,,
rtgstrg,rtgstrg,,122,Trials,2,2_non-creaky.wav,http://127.0.0.1:5500/data/audio/2_non-creaky.wav,1.png,96.png,left,1.png,96.png,left,1.png,yes,2074,rtsheydhneyrthn,2026-01-27T19:09:20.539Z,,,,,,,,,,,,,,,,,,,,,,,,,,
rtgstrg,rtgstrg,,123,Trials,85,85_non-creaky.wav,http://127.0.0.1:5500/data/audio/85_non-creaky.wav,85.png,180.png,left,85.png,180.png,left,85.png,yes,1123,rtsheydhneyrthn,2026-01-27T19:09:24.331Z,,,,,,,,,,,,,,,,,,,,,,,,,,
rtgstrg,rtgstrg,,124,Trials,39,39_non-creaky.wav,http://127.0.0.1:5500/data/audio/39_non-creaky.wav,40.png,135.png,right,135.png,40.png,right,40.png,yes,1546,rtsheydhneyrthn,2026-01-27T19:09:28.689Z,,,,,,,,,,,,,,,,,,,,,,,,,,
rtgstrg,rtgstrg,,125,Trials,48,48_non-creaky.wav,http://127.0.0.1:5500/data/audio/48_non-creaky.wav,51.png,146.png,right,146.png,51.png,left,146.png,no,746,rtsheydhneyrthn,2026-01-27T19:09:32.122Z,,,,,,,,,,,,,,,,,,,,,,,,,,
rtgstrg,rtgstrg,,126,Trials,103,103_non-creaky.wav,http://127.0.0.1:5500/data/audio/103_non-creaky.wav,120.png,25.png,left,120.png,25.png,left,120.png,yes,430,rtsheydhneyrthn,2026-01-27T19:09:35.548Z,,,,,,,,,,,,,,,,,,,,,,,,,,
rtgstrg,rtgstrg,,127,Trials,186,186_creaky.wav,http://127.0.0.1:5500/data/audio/186_creaky.wav,44.png,139.png,left,44.png,139.png,left,44.png,yes,401,rtsheydhneyrthn,2026-01-27T19:09:38.572Z,,,,,,,,,,,,,,,,,,,,,,,,,,
rtgstrg,rtgstrg,,128,Trials,29,29_non-creaky.wav,http://127.0.0.1:5500/data/audio/29_non-creaky.wav,28.png,123.png,left,28.png,123.png,left,28.png,yes,444,rtsheydhneyrthn,2026-01-27T19:09:41.739Z,,,,,,,,,,,,,,,,,,,,,,,,,,
rtgstrg,rtgstrg,,129,Trials,264,264_creaky.wav,http://127.0.0.1:5500/data/audio/264_creaky.wav,149.png,54.png,right,54.png,149.png,right,149.png,yes,583,rtsheydhneyrthn,2026-01-27T19:09:45.173Z,,,,,,,,,,,,,,,,,,,,,,,,,,
rtgstrg,rtgstrg,,130,Trials,14,14_non-creaky.wav,http://127.0.0.1:5500/data/audio/14_non-creaky.wav,14.png,109.png,right,109.png,14.png,right,14.png,yes,695,rtsheydhneyrthn,2026-01-27T19:09:48.364Z,,,,,,,,,,,,,,,,,,,,,,,,,,
rtgstrg,rtgstrg,,131,Trials,210,210_creaky.wav,http://127.0.0.1:5500/data/audio/210_creaky.wav,73.png,168.png,right,168.png,73.png,right,73.png,yes,574,rtsheydhneyrthn,2026-01-27T19:09:51.345Z,,,,,,,,,,,,,,,,,,,,,,,,,,
rtgstrg,rtgstrg,,132,Trials,254,254_creaky.wav,http://127.0.0.1:5500/data/audio/254_creaky.wav,135.png,40.png,left,135.png,40.png,left,135.png,yes,384,rtsheydhneyrthn,2026-01-27T19:09:54.599Z,,,,,,,,,,,,,,,,,,,,,,,,,,
rtgstrg,rtgstrg,,133,Trials,180,180_creaky.wav,http://127.0.0.1:5500/data/audio/180_creaky.wav,36.png,131.png,left,36.png,131.png,left,36.png,yes,460,rtsheydhneyrthn,2026-01-27T19:09:58.014Z,,,,,,,,,,,,,,,,,,,,,,,,,,
rtgstrg,rtgstrg,,134,Trials,28,28_non-creaky.wav,http://127.0.0.1:5500/data/audio/28_non-creaky.wav,28.png,123.png,left,28.png,123.png,left,28.png,yes,854,rtsheydhneyrthn,2026-01-27T19:10:01.447Z,,,,,,,,,,,,,,,,,,,,,,,,,,
rtgstrg,rtgstrg,,135,Trials,31,31_non-creaky.wav,http://127.0.0.1:5500/data/audio/31_non-creaky.wav,30.png,125.png,right,125.png,30.png,right,30.png,yes,543,rtsheydhneyrthn,2026-01-27T19:10:04.239Z,,,,,,,,,,,,,,,,,,,,,,,,,,
rtgstrg,rtgstrg,,136,Trials,277,277_creaky.wav,http://127.0.0.1:5500/data/audio/277_creaky.wav,165.png,70.png,left,165.png,70.png,left,165.png,yes,1375,rtsheydhneyrthn,2026-01-27T19:10:08.451Z,,,,,,,,,,,,,,,,,,,,,,,,,,
rtgstrg,rtgstrg,,137,Trials,172,172_creaky.wav,http://127.0.0.1:5500/data/audio/172_creaky.wav,28.png,123.png,left,28.png,123.png,left,28.png,yes,124,rtsheydhneyrthn,2026-01-27T19:10:11.413Z,,,,,,,,,,,,,,,,,,,,,,,,,,
rtgstrg,rtgstrg,,138,Trials,229,229_creaky.wav,http://127.0.0.1:5500/data/audio/229_creaky.wav,85.png,180.png,right,180.png,85.png,right,85.png,yes,1118,rtsheydhneyrthn,2026-01-27T19:10:16.834Z,,,,,,,,,,,,,,,,,,,,,,,,,,
rtgstrg,rtgstrg,,139,Trials,224,224_creaky.wav,http://127.0.0.1:5500/data/audio/224_creaky.wav,80.png,175.png,right,175.png,80.png,left,175.png,no,5070,rtsheydhneyrthn,2026-01-27T19:10:25.147Z,,,,,,,,,,,,,,,,,,,,,,,,,,
rtgstrg,rtgstrg,,140,Trials,8,8_non-creaky.wav,http://127.0.0.1:5500/data/audio/8_non-creaky.wav,6.png,101.png,right,101.png,6.png,right,6.png,yes,48,rtsheydhneyrthn,2026-01-27T19:10:28.242Z,,,,,,,,,,,,,,,,,,,,,,,,,,
rtgstrg,rtgstrg,,,AttentionCheck,,,,,,,,,,,,,rtsheydhneyrthn,2026-01-27T19:10:31.032Z,,,,,,,,,,,,,,,,,,,,,,,,,,
rtgstrg,rtgstrg,,141,Trials,44,44_non-creaky.wav,http://127.0.0.1:5500/data/audio/44_non-creaky.wav,46.png,141.png,left,46.png,141.png,left,46.png,yes,365,rtsheydhneyrthn,2026-01-27T19:10:34.109Z,,,,,,,,,,,,,,,,,,,,,,,,,,
rtgstrg,rtgstrg,,142,Trials,155,155_creaky.wav,http://127.0.0.1:5500/data/audio/155_creaky.wav,9.png,104.png,right,104.png,9.png,right,9.png,yes,481,rtsheydhneyrthn,2026-01-27T19:10:37.513Z,,,,,,,,,,,,,,,,,,,,,,,,,,
rtgstrg,rtgstrg,,143,Trials,195,195_creaky.wav,http://127.0.0.1:5500/data/audio/195_creaky.wav,54.png,149.png,left,54.png,149.png,left,54.png,yes,364,rtsheydhneyrthn,2026-01-27T19:10:40.776Z,,,,,,,,,,,,,,,,,,,,,,,,,,
rtgstrg,rtgstrg,,144,Trials,221,221_creaky.wav,http://127.0.0.1:5500/data/audio/221_creaky.wav,85.png,180.png,left,85.png,180.png,left,85.png,yes,2317,rtsheydhneyrthn,2026-01-27T19:10:45.705Z,,,,,,,,,,,,,,,,,,,,,,,,,,
rtgstrg,rtgstrg,,145,Trials,45,45_non-creaky.wav,http://127.0.0.1:5500/data/audio/45_non-creaky.wav,47.png,142.png,left,47.png,142.png,left,47.png,yes,378,rtsheydhneyrthn,2026-01-27T19:10:48.534Z,,,,,,,,,,,,,,,,,,,,,,,,,,
rtgstrg,rtgstrg,,146,Trials,109,109_non-creaky.wav,http://127.0.0.1:5500/data/audio/109_non-creaky.wav,131.png,36.png,left,131.png,36.png,left,131.png,yes,465,rtsheydhneyrthn,2026-01-27T19:10:51.509Z,,,,,,,,,,,,,,,,,,,,,,,,,,
rtgstrg,rtgstrg,,147,Trials,259,259_creaky.wav,http://127.0.0.1:5500/data/audio/259_creaky.wav,143.png,48.png,left,143.png,48.png,left,143.png,yes,187,rtsheydhneyrthn,2026-01-27T19:10:54.251Z,,,,,,,,,,,,,,,,,,,,,,,,,,
rtgstrg,rtgstrg,,148,Trials,62,62_non-creaky.wav,http://127.0.0.1:5500/data/audio/62_non-creaky.wav,68.png,163.png,left,68.png,163.png,left,68.png,yes,355,rtsheydhneyrthn,2026-01-27T19:10:57.434Z,,,,,,,,,,,,,,,,,,,,,,,,,,
rtgstrg,rtgstrg,,149,Trials,233,233_creaky.wav,http://127.0.0.1:5500/data/audio/233_creaky.wav,98.png,3.png,right,3.png,98.png,right,98.png,yes,579,rtsheydhneyrthn,2026-01-27T19:11:00.975Z,,,,,,,,,,,,,,,,,,,,,,,,,,
rtgstrg,rtgstrg,,150,Trials,73,73_non-creaky.wav,http://127.0.0.1:5500/data/audio/73_non-creaky.wav,81.png,176.png,left,81.png,176.png,left,81.png,yes,1061,rtsheydhneyrthn,2026-01-27T19:11:04.746Z,,,,,,,,,,,,,,,,,,,,,,,,,,
rtgstrg,rtgstrg,,151,Trials,11,11_non-creaky.wav,http://127.0.0.1:5500/data/audio/11_non-creaky.wav,9.png,104.png,left,9.png,104.png,left,9.png,yes,657,rtsheydhneyrthn,2026-01-27T19:11:07.725Z,,,,,,,,,,,,,,,,,,,,,,,,,,
rtgstrg,rtgstrg,,152,Trials,127,127_non-creaky.wav,http://127.0.0.1:5500/data/audio/127_non-creaky.wav,158.png,63.png,left,158.png,63.png,left,158.png,yes,998,rtsheydhneyrthn,2026-01-27T19:11:11.213Z,,,,,,,,,,,,,,,,,,,,,,,,,,
bubbleboy,bubbleboy,,,Survey,1,1_non-creaky.wav,,1.png,,,,,,,,,,2026-01-27T19:17:38.376Z,yes,6,7,dialect,yes,,,,,,,,,,,,,,,,,,,,,
bubbleboy,bubbleboy,,,Survey,2,2_non-creaky.wav,,1.png,,,,,,,,,,2026-01-27T19:17:48.208Z,yes,2,3,msa,yes,,,,,,,,,,,,,,,,,,,,,
bubbleboy,bubbleboy,,,Survey,1,1_non-creaky.wav,,1.png,,,,,,,,,,2026-01-27T19:25:59.681Z,no,6,4,msa,yes,,,,,,,,,,,,,,,,,,,,,
bubbleboy,bubbleboy,,,Survey,2,2_non-creaky.wav,,1.png,,,,,,,,,,2026-01-27T19:26:35.452Z,yes,4,3,dialect,yes,,,,,,,,,,,,,,,,,,,,,
bubbleboy2,bubbleboy2,,,Demographics,,,,,,,,,,,,,,2026-01-27T19:30:48.549Z,,,,,,Levantine,none,5,yes,4,2,7,,,,,,,,,,,,,,
bubbleboy2,bubbleboy2,,,Demographics-Language,,,,,,,,,,,,,,2026-01-27T19:31:29.448Z,,,,,,,,,,,,,hi,54,13,33,4,4,78,M,,,,,,
bubbleboy,bubbleboy,,,Survey,64,64_non-creaky.wav,,70.png,,,,,,,,,,2026-01-27T19:31:49.398Z,yes,3,3,msa,yes,,,,,,,,,,,,,,,,,,,,,
bubbleboy,bubbleboy,,,Survey,30,30_non-creaky.wav,,30.png,,,,,,,,,,2026-01-27T19:31:56.081Z,yes,4,3,msa,yes,,,,,,,,,,,,,,,,,,,,,
bubbleboy,bubbleboy,,,Survey,83,83_non-creaky.wav,,83.png,,,,,,,,,,2026-01-27T19:34:50.446Z,yes,NA,3,dialect,yes,,,,,,,,,,,,,,,,,,,,,
bubbleboy,bubbleboy,,,Survey,173,173_creaky.wav,,28.png,,,,,,,,,,2026-01-27T19:34:59.312Z,yes,4,4,dialect,yes,,,,,,,,,,,,,,,,,,,,,
l`shvljhdvs`njkl,l`shvljhdvs`njkl,,,AttentionCheck,,,,,,,,,,,,,xfhmxfrhng,2026-01-27T22:11:50.492Z,,,,,,,,,,,,,,,,,,,,,,,,,,
l`shvljhdvs`njkl,l`shvljhdvs`njkl,,1,Trials,251,251_creaky.wav,http://127.0.0.1:5500/data/audio/251_creaky.wav,127.png,32.png,right,32.png,127.png,right,127.png,yes,537,xfhmxfrhng,2026-01-27T22:11:59.656Z,,,,,,,,,,,,,,,,,,,,,,,,,,
l`shvljhdvs`njkl,l`shvljhdvs`njkl,,2,Trials,96,96_non-creaky.wav,http://127.0.0.1:5500/data/audio/96_non-creaky.wav,109.png,14.png,right,14.png,109.png,right,109.png,yes,49,xfhmxfrhng,2026-01-27T22:12:02.865Z,,,,,,,,,,,,,,,,,,,,,,,,,,
l`shvljhdvs`njkl,l`shvljhdvs`njkl,,3,Trials,131,131_non-creaky.wav,http://127.0.0.1:5500/data/audio/131_non-creaky.wav,163.png,68.png,left,163.png,68.png,left,163.png,yes,291,xfhmxfrhng,2026-01-27T22:12:06.234Z,,,,,,,,,,,,,,,,,,,,,,,,,,
Gs,Gs,,,AttentionCheck,,,,,,,,,,,,,Na,2026-01-28T00:06:46.764Z,,,,,,,,,,,,,,,,,,,,,,,,,,
Gs,Gs,,1,Trials,82,82_non-creaky.wav,https://benebular.github.io/pharylary/data/audio/82_non-creaky.wav,82.png,177.png,right,177.png,82.png,left,177.png,no,1114,Na,2026-01-28T00:06:55.670Z,,,,,,,,,,,,,,,,,,,,,,,,,,
Gs,Gs,,2,Trials,135,135_non-creaky.wav,https://benebular.github.io/pharylary/data/audio/135_non-creaky.wav,168.png,73.png,left,168.png,73.png,left,168.png,yes,797,Na,2026-01-28T00:06:59.877Z,,,,,,,,,,,,,,,,,,,,,,,,,,
Gs,Gs,,3,Trials,185,185_creaky.wav,https://benebular.github.io/pharylary/data/audio/185_creaky.wav,42.png,137.png,left,42.png,137.png,left,42.png,yes,553,Na,2026-01-28T00:07:03.455Z,,,,,,,,,,,,,,,,,,,,,,,,,,
Gs,Gs,,4,Trials,154,154_creaky.wav,https://benebular.github.io/pharylary/data/audio/154_creaky.wav,10.png,104.png,right,104.png,10.png,left,104.png,no,86,Na,2026-01-28T00:07:06.847Z,,,,,,,,,,,,,,,,,,,,,,,,,,
Gs,Gs,,5,Trials,132,132_non-creaky.wav,https://benebular.github.io/pharylary/data/audio/132_non-creaky.wav,164.png,69.png,left,164.png,69.png,left,164.png,yes,50060,Na,2026-01-28T00:08:32.938Z,,,,,,,,,,,,,,,,,,,,,,,,,,
Gs,Gs,,6,Trials,83,83_non-creaky.wav,https://benebular.github.io/pharylary/data/audio/83_non-creaky.wav,83.png,178.png,right,178.png,83.png,right,83.png,yes,1716,Na,2026-01-28T00:08:38.673Z,,,,,,,,,,,,,,,,,,,,,,,,,,
Gs,Gs,,7,Trials,147,147_creaky.wav,https://benebular.github.io/pharylary/data/audio/147_creaky.wav,3.png,98.png,left,3.png,98.png,left,3.png,yes,373,Na,2026-01-28T00:08:42.387Z,,,,,,,,,,,,,,,,,,,,,,,,,,
Gs,Gs,,8,Trials,251,251_creaky.wav,https://benebular.github.io/pharylary/data/audio/251_creaky.wav,127.png,32.png,left,127.png,32.png,left,127.png,yes,1309,Na,2026-01-28T00:08:47.589Z,,,,,,,,,,,,,,,,,,,,,,,,,,
Gs,Gs,,9,Trials,72,72_non-creaky.wav,https://benebular.github.io/pharylary/data/audio/72_non-creaky.wav,80.png,175.png,left,80.png,175.png,left,80.png,yes,3045,Na,2026-01-28T00:10:51.461Z,,,,,,,,,,,,,,,,,,,,,,,,,,
Gs,Gs,,10,Trials,263,263_creaky.wav,https://benebular.github.io/pharylary/data/audio/263_creaky.wav,148.png,53.png,left,148.png,53.png,left,148.png,yes,529,Na,2026-01-28T00:11:09.550Z,,,,,,,,,,,,,,,,,,,,,,,,,,
test1,test1,,,AttentionCheck,,,,,,,,,,,,,arctis,2026-01-28T02:21:22.148Z,,,,,,,,,,,,,,,,,,,,,,,,,,
test1,test1,,1,Trials,226,226_creaky.wav,https://benebular.github.io/pharylary/data/audio/226_creaky.wav,82.png,177.png,right,177.png,82.png,right,82.png,yes,425,arctis,2026-01-28T02:21:31.341Z,,,,,,,,,,,,,,,,,,,,,,,,,,
test1,test1,,2,Trials,121,121_non-creaky.wav,https://benebular.github.io/pharylary/data/audio/121_non-creaky.wav,150.png,55.png,left,150.png,55.png,left,150.png,yes,920,arctis,2026-01-28T02:21:35.816Z,,,,,,,,,,,,,,,,,,,,,,,,,,
test1,test1,,3,Trials,10,10_non-creaky.wav,https://benebular.github.io/pharylary/data/audio/10_non-creaky.wav,10.png,104.png,right,104.png,10.png,right,10.png,yes,323,arctis,2026-01-28T02:21:38.848Z,,,,,,,,,,,,,,,,,,,,,,,,,,
test1,test1,,4,Trials,183,183_creaky.wav,https://benebular.github.io/pharylary/data/audio/183_creaky.wav,40.png,135.png,left,40.png,135.png,right,135.png,no,371,arctis,2026-01-28T02:21:41.817Z,,,,,,,,,,,,,,,,,,,,,,,,,,
test1,test1,,5,Trials,209,209_creaky.wav,https://benebular.github.io/pharylary/data/audio/209_creaky.wav,72.png,167.png,left,72.png,167.png,left,72.png,yes,364,arctis,2026-01-28T02:21:44.650Z,,,,,,,,,,,,,,,,,,,,,,,,,,
test1,test1,,6,Trials,256,256_creaky.wav,https://benebular.github.io/pharylary/data/audio/256_creaky.wav,139.png,44.png,right,44.png,139.png,right,139.png,yes,299,arctis,2026-01-28T02:21:47.505Z,,,,,,,,,,,,,,,,,,,,,,,,,,
test1,test1,,7,Trials,232,232_creaky.wav,https://benebular.github.io/pharylary/data/audio/232_creaky.wav,96.png,1.png,right,1.png,96.png,right,96.png,yes,311,arctis,2026-01-28T02:21:50.238Z,,,,,,,,,,,,,,,,,,,,,,,,,,
test1,test1,,8,Trials,108,108_non-creaky.wav,https://benebular.github.io/pharylary/data/audio/108_non-creaky.wav,129.png,34.png,right,34.png,129.png,left,34.png,no,486,arctis,2026-01-28T02:21:53.201Z,,,,,,,,,,,,,,,,,,,,,,,,,,
test1,test1,,9,Trials,132,132_non-creaky.wav,https://benebular.github.io/pharylary/data/audio/132_non-creaky.wav,164.png,69.png,right,69.png,164.png,right,164.png,yes,525,arctis,2026-01-28T02:21:56.529Z,,,,,,,,,,,,,,,,,,,,,,,,,,
test1,test1,,10,Trials,128,128_non-creaky.wav,https://benebular.github.io/pharylary/data/audio/128_non-creaky.wav,159.png,64.png,left,159.png,64.png,left,159.png,yes,382,arctis,2026-01-28T02:21:59.386Z,,,,,,,,,,,,,,,,,,,,,,,,,,
test1,test1,,11,Trials,27,27_non-creaky.wav,https://benebular.github.io/pharylary/data/audio/27_non-creaky.wav,26.png,121.png,left,26.png,121.png,left,26.png,yes,362,arctis,2026-01-28T02:22:02.387Z,,,,,,,,,,,,,,,,,,,,,,,,,,
test1,test1,,12,Trials,164,164_creaky.wav,https://benebular.github.io/pharylary/data/audio/164_creaky.wav,20.png,115.png,left,20.png,115.png,left,20.png,yes,474,arctis,2026-01-28T02:22:05.459Z,,,,,,,,,,,,,,,,,,,,,,,,,,
test1,test1,,13,Trials,284,284_creaky.wav,https://benebular.github.io/pharylary/data/audio/284_creaky.wav,178.png,83.png,left,178.png,83.png,left,178.png,yes,349,arctis,2026-01-28T02:22:08.675Z,,,,,,,,,,,,,,,,,,,,,,,,,,
test1,test1,,14,Trials,103,103_non-creaky.wav,https://benebular.github.io/pharylary/data/audio/103_non-creaky.wav,120.png,25.png,left,120.png,25.png,left,120.png,yes,547,arctis,2026-01-28T02:22:12.562Z,,,,,,,,,,,,,,,,,,,,,,,,,,
test1,test1,,15,Trials,162,162_creaky.wav,https://benebular.github.io/pharylary/data/audio/162_creaky.wav,18.png,113.png,left,18.png,113.png,left,18.png,yes,312,arctis,2026-01-28T02:22:15.657Z,,,,,,,,,,,,,,,,,,,,,,,,,,
test1,test1,,16,Trials,59,59_non-creaky.wav,https://benebular.github.io/pharylary/data/audio/59_non-creaky.wav,64.png,159.png,left,64.png,159.png,left,64.png,yes,339,arctis,2026-01-28T02:22:18.704Z,,,,,,,,,,,,,,,,,,,,,,,,,,
test1,test1,,17,Trials,20,20_non-creaky.wav,https://benebular.github.io/pharylary/data/audio/20_non-creaky.wav,20.png,115.png,right,115.png,20.png,right,20.png,yes,414,arctis,2026-01-28T02:22:22.408Z,,,,,,,,,,,,,,,,,,,,,,,,,,
test1,test1,,18,Trials,11,11_non-creaky.wav,https://benebular.github.io/pharylary/data/audio/11_non-creaky.wav,9.png,104.png,left,9.png,104.png,left,9.png,yes,418,arctis,2026-01-28T02:22:25.314Z,,,,,,,,,,,,,,,,,,,,,,,,,,
test1,test1,,19,Trials,16,16_non-creaky.wav,https://benebular.github.io/pharylary/data/audio/16_non-creaky.wav,16.png,112.png,right,112.png,16.png,right,16.png,yes,368,arctis,2026-01-28T02:22:28.363Z,,,,,,,,,,,,,,,,,,,,,,,,,,
test1,test1,,20,Trials,270,270_creaky.wav,https://benebular.github.io/pharylary/data/audio/270_creaky.wav,157.png,62.png,right,62.png,157.png,right,157.png,yes,566,arctis,2026-01-28T02:22:31.151Z,,,,,,,,,,,,,,,,,,,,,,,,,,
test1,test1,,21,Trials,245,245_creaky.wav,https://benebular.github.io/pharylary/data/audio/245_creaky.wav,118.png,23.png,left,118.png,23.png,left,118.png,yes,606,arctis,2026-01-28T02:22:34.272Z,,,,,,,,,,,,,,,,,,,,,,,,,,
test1,test1,,22,Trials,155,155_creaky.wav,https://benebular.github.io/pharylary/data/audio/155_creaky.wav,9.png,104.png,right,104.png,9.png,right,9.png,yes,421,arctis,2026-01-28T02:22:37.316Z,,,,,,,,,,,,,,,,,,,,,,,,,,
test1,test1,,23,Trials,216,216_creaky.wav,https://benebular.github.io/pharylary/data/audio/216_creaky.wav,80.png,175.png,right,175.png,80.png,right,80.png,yes,1465,arctis,2026-01-28T02:22:41.510Z,,,,,,,,,,,,,,,,,,,,,,,,,,
test1,test1,,24,Trials,67,67_non-creaky.wav,https://benebular.github.io/pharylary/data/audio/67_non-creaky.wav,74.png,169.png,right,169.png,74.png,right,74.png,yes,815,arctis,2026-01-28T02:22:45.200Z,,,,,,,,,,,,,,,,,,,,,,,,,,
test1,test1,,25,Trials,159,159_creaky.wav,https://benebular.github.io/pharylary/data/audio/159_creaky.wav,14.png,109.png,right,109.png,14.png,right,14.png,yes,577,arctis,2026-01-28T02:22:48.302Z,,,,,,,,,,,,,,,,,,,,,,,,,,
test1,test1,,26,Trials,38,38_non-creaky.wav,https://benebular.github.io/pharylary/data/audio/38_non-creaky.wav,40.png,135.png,right,135.png,40.png,left,135.png,no,305,arctis,2026-01-28T02:22:51.140Z,,,,,,,,,,,,,,,,,,,,,,,,,,
test1,test1,,27,Trials,7,7_non-creaky.wav,https://benebular.github.io/pharylary/data/audio/7_non-creaky.wav,7.png,101.png,left,7.png,101.png,left,7.png,yes,507,arctis,2026-01-28T02:22:54.182Z,,,,,,,,,,,,,,,,,,,,,,,,,,
test1,test1,,28,Trials,123,123_non-creaky.wav,https://benebular.github.io/pharylary/data/audio/123_non-creaky.wav,152.png,57.png,left,152.png,57.png,left,152.png,yes,635,arctis,2026-01-28T02:22:57.378Z,,,,,,,,,,,,,,,,,,,,,,,,,,
test1,test1,,,AttentionCheck,,,,,,,,,,,,,arctis,2026-01-28T02:23:03.827Z,,,,,,,,,,,,,,,,,,,,,,,,,,
test1,test1,,29,Trials,239,239_creaky.wav,https://benebular.github.io/pharylary/data/audio/239_creaky.wav,107.png,12.png,left,107.png,12.png,right,12.png,no,458,arctis,2026-01-28T02:23:09.682Z,,,,,,,,,,,,,,,,,,,,,,,,,,
test1,test1,,30,Trials,161,161_creaky.wav,https://benebular.github.io/pharylary/data/audio/161_creaky.wav,16.png,112.png,right,112.png,16.png,left,112.png,no,415,arctis,2026-01-28T02:23:13.739Z,,,,,,,,,,,,,,,,,,,,,,,,,,
test1,test1,,31,Trials,280,280_creaky.wav,https://benebular.github.io/pharylary/data/audio/280_creaky.wav,169.png,74.png,right,74.png,169.png,right,169.png,yes,282,arctis,2026-01-28T02:23:17.286Z,,,,,,,,,,,,,,,,,,,,,,,,,,
test1,test1,,32,Trials,133,133_non-creaky.wav,https://benebular.github.io/pharylary/data/audio/133_non-creaky.wav,165.png,70.png,left,165.png,70.png,left,165.png,yes,402,arctis,2026-01-28T02:23:20.086Z,,,,,,,,,,,,,,,,,,,,,,,,,,
test1,test1,,33,Trials,193,193_creaky.wav,https://benebular.github.io/pharylary/data/audio/193_creaky.wav,52.png,147.png,right,147.png,52.png,right,52.png,yes,344,arctis,2026-01-28T02:23:23.029Z,,,,,,,,,,,,,,,,,,,,,,,,,,
test1,test1,,34,Trials,151,151_creaky.wav,https://benebular.github.io/pharylary/data/audio/151_creaky.wav,7.png,101.png,left,7.png,101.png,left,7.png,yes,448,arctis,2026-01-28T02:23:26.162Z,,,,,,,,,,,,,,,,,,,,,,,,,,
test1,test1,,35,Trials,158,158_creaky.wav,https://benebular.github.io/pharylary/data/audio/158_creaky.wav,14.png,109.png,right,109.png,14.png,right,14.png,yes,676,arctis,2026-01-28T02:23:29.050Z,,,,,,,,,,,,,,,,,,,,,,,,,,
test1,test1,,36,Trials,177,177_creaky.wav,https://benebular.github.io/pharylary/data/audio/177_creaky.wav,32.png,127.png,left,32.png,127.png,left,32.png,yes,182,arctis,2026-01-28T02:23:31.716Z,,,,,,,,,,,,,,,,,,,,,,,,,,
test1,test1,,37,Trials,202,202_creaky.wav,https://benebular.github.io/pharylary/data/audio/202_creaky.wav,63.png,158.png,left,63.png,158.png,left,63.png,yes,302,arctis,2026-01-28T02:23:35.037Z,,,,,,,,,,,,,,,,,,,,,,,,,,
test1,test1,,38,Trials,227,227_creaky.wav,https://benebular.github.io/pharylary/data/audio/227_creaky.wav,83.png,178.png,left,83.png,178.png,left,83.png,yes,933,arctis,2026-01-28T02:23:39.097Z,,,,,,,,,,,,,,,,,,,,,,,,,,
test1,test1,,39,Trials,213,213_creaky.wav,https://benebular.github.io/pharylary/data/audio/213_creaky.wav,72.png,167.png,right,167.png,72.png,right,72.png,yes,506,arctis,2026-01-28T02:23:42.190Z,,,,,,,,,,,,,,,,,,,,,,,,,,
test1,test1,,40,Trials,279,279_creaky.wav,https://benebular.github.io/pharylary/data/audio/279_creaky.wav,168.png,73.png,right,73.png,168.png,right,168.png,yes,336,arctis,2026-01-28T02:23:45.491Z,,,,,,,,,,,,,,,,,,,,,,,,,,
test1,test1,,41,Trials,138,138_non-creaky.wav,https://benebular.github.io/pharylary/data/audio/138_non-creaky.wav,176.png,81.png,left,176.png,81.png,left,176.png,yes,459,arctis,2026-01-28T02:23:48.484Z,,,,,,,,,,,,,,,,,,,,,,,,,,
test1,test1,,42,Trials,240,240_creaky.wav,https://benebular.github.io/pharylary/data/audio/240_creaky.wav,109.png,14.png,left,109.png,14.png,left,109.png,yes,251,arctis,2026-01-28T02:23:51.995Z,,,,,,,,,,,,,,,,,,,,,,,,,,
test1,test1,,43,Trials,111,111_non-creaky.wav,https://benebular.github.io/pharylary/data/audio/111_non-creaky.wav,137.png,42.png,right,42.png,137.png,right,137.png,yes,382,arctis,2026-01-28T02:23:54.935Z,,,,,,,,,,,,,,,,,,,,,,,,,,
test1,test1,,44,Trials,288,288_creaky.wav,https://benebular.github.io/pharylary/data/audio/288_creaky.wav,182.png,87.png,right,87.png,182.png,right,182.png,yes,312,arctis,2026-01-28T02:23:59.535Z,,,,,,,,,,,,,,,,,,,,,,,,,,
test1,test1,,45,Trials,184,184_creaky.wav,https://benebular.github.io/pharylary/data/audio/184_creaky.wav,42.png,137.png,left,42.png,137.png,left,42.png,yes,597,arctis,2026-01-28T02:24:03.330Z,,,,,,,,,,,,,,,,,,,,,,,,,,
test1,test1,,46,Trials,15,15_non-creaky.wav,https://benebular.github.io/pharylary/data/audio/15_non-creaky.wav,14.png,109.png,right,109.png,14.png,right,14.png,yes,670,arctis,2026-01-28T02:24:06.643Z,,,,,,,,,,,,,,,,,,,,,,,,,,
test1,test1,,47,Trials,139,139_non-creaky.wav,https://benebular.github.io/pharylary/data/audio/139_non-creaky.wav,177.png,82.png,left,177.png,82.png,left,177.png,yes,760,arctis,2026-01-28T02:24:09.813Z,,,,,,,,,,,,,,,,,,,,,,,,,,
test1,test1,,48,Trials,285,285_creaky.wav,https://benebular.github.io/pharylary/data/audio/285_creaky.wav,179.png,84.png,left,179.png,84.png,left,179.png,yes,492,arctis,2026-01-28T02:24:13.425Z,,,,,,,,,,,,,,,,,,,,,,,,,,
test1,test1,,49,Trials,152,152_creaky.wav,https://benebular.github.io/pharylary/data/audio/152_creaky.wav,6.png,101.png,right,101.png,6.png,right,6.png,yes,425,arctis,2026-01-28T02:24:16.638Z,,,,,,,,,,,,,,,,,,,,,,,,,,
test1,test1,,50,Trials,235,235_creaky.wav,https://benebular.github.io/pharylary/data/audio/235_creaky.wav,101.png,6.png,right,6.png,101.png,right,101.png,yes,291,arctis,2026-01-28T02:24:19.435Z,,,,,,,,,,,,,,,,,,,,,,,,,,
test2,test2,,,AttentionCheck,,,,,,,,,,,,,arctis,2026-01-28T03:27:04.311Z,,,,,,,,,,,,,,,,,,,,,,,,,,
test2,test2,,1,Trials,204,204_creaky.wav,https://benebular.github.io/pharylary/data/audio/204_creaky.wav,65.png,160.png,right,160.png,65.png,right,65.png,yes,409,arctis,2026-01-28T03:27:09.369Z,,,,,,,,,,,,,,,,,,,,,,,,,,
test2,test2,,2,Trials,4,4_non-creaky.wav,https://benebular.github.io/pharylary/data/audio/4_non-creaky.wav,4.png,99.png,right,99.png,4.png,right,4.png,yes,430,arctis,2026-01-28T03:27:13.190Z,,,,,,,,,,,,,,,,,,,,,,,,,,
test2,test2,,3,Trials,229,229_creaky.wav,https://benebular.github.io/pharylary/data/audio/229_creaky.wav,85.png,180.png,left,85.png,180.png,left,85.png,yes,747,arctis,2026-01-28T03:27:16.687Z,,,,,,,,,,,,,,,,,,,,,,,,,,
test2,test2,,4,Trials,270,270_creaky.wav,https://benebular.github.io/pharylary/data/audio/270_creaky.wav,157.png,62.png,left,157.png,62.png,left,157.png,yes,437,arctis,2026-01-28T03:27:19.457Z,,,,,,,,,,,,,,,,,,,,,,,,,,
test2,test2,,5,Trials,17,17_non-creaky.wav,https://benebular.github.io/pharylary/data/audio/17_non-creaky.wav,16.png,112.png,left,16.png,112.png,left,16.png,yes,283,arctis,2026-01-28T03:27:22.443Z,,,,,,,,,,,,,,,,,,,,,,,,,,
test2,test2,,6,Trials,117,117_non-creaky.wav,https://benebular.github.io/pharylary/data/audio/117_non-creaky.wav,146.png,51.png,right,51.png,146.png,right,146.png,yes,597,arctis,2026-01-28T03:27:25.467Z,,,,,,,,,,,,,,,,,,,,,,,,,,
test2,test2,,7,Trials,231,231_creaky.wav,https://benebular.github.io/pharylary/data/audio/231_creaky.wav,87.png,182.png,right,182.png,87.png,right,87.png,yes,319,arctis,2026-01-28T03:27:28.699Z,,,,,,,,,,,,,,,,,,,,,,,,,,
test2,test2,,8,Trials,276,276_creaky.wav,https://benebular.github.io/pharylary/data/audio/276_creaky.wav,164.png,69.png,right,69.png,164.png,right,164.png,yes,397,arctis,2026-01-28T03:27:32.277Z,,,,,,,,,,,,,,,,,,,,,,,,,,
test2,test2,,9,Trials,202,202_creaky.wav,https://benebular.github.io/pharylary/data/audio/202_creaky.wav,63.png,158.png,left,63.png,158.png,left,63.png,yes,353,arctis,2026-01-28T03:27:35.302Z,,,,,,,,,,,,,,,,,,,,,,,,,,
test2,test2,,10,Trials,106,106_non-creaky.wav,https://benebular.github.io/pharylary/data/audio/106_non-creaky.wav,125.png,30.png,left,125.png,30.png,left,125.png,yes,433,arctis,2026-01-28T03:27:38.023Z,,,,,,,,,,,,,,,,,,,,,,,,,,
test2,test2,,11,Trials,37,37_non-creaky.wav,https://benebular.github.io/pharylary/data/audio/37_non-creaky.wav,36.png,131.png,right,131.png,36.png,right,36.png,yes,256,arctis,2026-01-28T03:27:40.675Z,,,,,,,,,,,,,,,,,,,,,,,,,,
test2,test2,,12,Trials,57,57_non-creaky.wav,https://benebular.github.io/pharylary/data/audio/57_non-creaky.wav,62.png,157.png,left,62.png,157.png,left,62.png,yes,246,arctis,2026-01-28T03:27:43.226Z,,,,,,,,,,,,,,,,,,,,,,,,,,
test2,test2,,13,Trials,115,115_non-creaky.wav,https://benebular.github.io/pharylary/data/audio/115_non-creaky.wav,143.png,48.png,left,143.png,48.png,left,143.png,yes,315,arctis,2026-01-28T03:27:45.864Z,,,,,,,,,,,,,,,,,,,,,,,,,,
test2,test2,,14,Trials,41,41_non-creaky.wav,https://benebular.github.io/pharylary/data/audio/41_non-creaky.wav,42.png,137.png,right,137.png,42.png,right,42.png,yes,307,arctis,2026-01-28T03:27:48.265Z,,,,,,,,,,,,,,,,,,,,,,,,,,
test2,test2,,15,Trials,58,58_non-creaky.wav,https://benebular.github.io/pharylary/data/audio/58_non-creaky.wav,63.png,158.png,right,158.png,63.png,right,63.png,yes,241,arctis,2026-01-28T03:27:51.000Z,,,,,,,,,,,,,,,,,,,,,,,,,,
test2,test2,,16,Trials,66,66_non-creaky.wav,https://benebular.github.io/pharylary/data/audio/66_non-creaky.wav,73.png,168.png,left,73.png,168.png,left,73.png,yes,260,arctis,2026-01-28T03:27:53.559Z,,,,,,,,,,,,,,,,,,,,,,,,,,
test2,test2,,17,Trials,135,135_non-creaky.wav,https://benebular.github.io/pharylary/data/audio/135_non-creaky.wav,168.png,73.png,left,168.png,73.png,left,168.png,yes,186,arctis,2026-01-28T03:27:56.084Z,,,,,,,,,,,,,,,,,,,,,,,,,,
test2,test2,,18,Trials,151,151_creaky.wav,https://benebular.github.io/pharylary/data/audio/151_creaky.wav,7.png,101.png,left,7.png,101.png,left,7.png,yes,197,arctis,2026-01-28T03:27:58.776Z,,,,,,,,,,,,,,,,,,,,,,,,,,
test2,test2,,19,Trials,78,78_non-creaky.wav,https://benebular.github.io/pharylary/data/audio/78_non-creaky.wav,86.png,181.png,left,86.png,181.png,left,86.png,yes,327,arctis,2026-01-28T03:28:01.466Z,,,,,,,,,,,,,,,,,,,,,,,,,,
test2,test2,,20,Trials,118,118_non-creaky.wav,https://benebular.github.io/pharylary/data/audio/118_non-creaky.wav,147.png,52.png,left,147.png,52.png,left,147.png,yes,266,arctis,2026-01-28T03:28:04.433Z,,,,,,,,,,,,,,,,,,,,,,,,,,
test2,test2,,21,Trials,162,162_creaky.wav,https://benebular.github.io/pharylary/data/audio/162_creaky.wav,18.png,113.png,left,18.png,113.png,left,18.png,yes,1003,arctis,2026-01-28T03:28:08.020Z,,,,,,,,,,,,,,,,,,,,,,,,,,
test2,test2,,22,Trials,98,98_non-creaky.wav,https://benebular.github.io/pharylary/data/audio/98_non-creaky.wav,113.png,18.png,right,18.png,113.png,right,113.png,yes,455,arctis,2026-01-28T03:28:11.393Z,,,,,,,,,,,,,,,,,,,,,,,,,,
test2,test2,,23,Trials,22,22_non-creaky.wav,https://benebular.github.io/pharylary/data/audio/22_non-creaky.wav,22.png,117.png,right,117.png,22.png,right,22.png,yes,141,arctis,2026-01-28T03:28:14.198Z,,,,,,,,,,,,,,,,,,,,,,,,,,
test2,test2,,24,Trials,81,81_non-creaky.wav,https://benebular.github.io/pharylary/data/audio/81_non-creaky.wav,81.png,176.png,left,81.png,176.png,left,81.png,yes,261,arctis,2026-01-28T03:28:16.904Z,,,,,,,,,,,,,,,,,,,,,,,,,,
test2,test2,,25,Trials,220,220_creaky.wav,https://benebular.github.io/pharylary/data/audio/220_creaky.wav,84.png,179.png,right,179.png,84.png,right,84.png,yes,1927,arctis,2026-01-28T03:28:21.561Z,,,,,,,,,,,,,,,,,,,,,,,,,,
test2,test2,,26,Trials,267,267_creaky.wav,https://benebular.github.io/pharylary/data/audio/267_creaky.wav,152.png,57.png,right,57.png,152.png,right,152.png,yes,327,arctis,2026-01-28T03:28:24.561Z,,,,,,,,,,,,,,,,,,,,,,,,,,
test2,test2,,27,Trials,62,62_non-creaky.wav,https://benebular.github.io/pharylary/data/audio/62_non-creaky.wav,68.png,163.png,left,68.png,163.png,left,68.png,yes,359,arctis,2026-01-28T03:28:27.263Z,,,,,,,,,,,,,,,,,,,,,,,,,,
test2,test2,,28,Trials,30,30_non-creaky.wav,https://benebular.github.io/pharylary/data/audio/30_non-creaky.wav,30.png,125.png,right,125.png,30.png,left,125.png,no,318,arctis,2026-01-28T03:28:29.812Z,,,,,,,,,,,,,,,,,,,,,,,,,,
test2,test2,,,AttentionCheck,,,,,,,,,,,,,arctis,2026-01-28T03:28:38.200Z,,,,,,,,,,,,,,,,,,,,,,,,,,
test2,test2,,29,Trials,184,184_creaky.wav,https://benebular.github.io/pharylary/data/audio/184_creaky.wav,42.png,137.png,left,42.png,137.png,left,42.png,yes,361,arctis,2026-01-28T03:28:41.435Z,,,,,,,,,,,,,,,,,,,,,,,,,,
test2,test2,,30,Trials,186,186_creaky.wav,https://benebular.github.io/pharylary/data/audio/186_creaky.wav,44.png,139.png,left,44.png,139.png,left,44.png,yes,351,arctis,2026-01-28T03:28:44.226Z,,,,,,,,,,,,,,,,,,,,,,,,,,
test2,test2,,31,Trials,45,45_non-creaky.wav,https://benebular.github.io/pharylary/data/audio/45_non-creaky.wav,47.png,142.png,left,47.png,142.png,left,47.png,yes,267,arctis,2026-01-28T03:28:46.760Z,,,,,,,,,,,,,,,,,,,,,,,,,,
test2,test2,,32,Trials,170,170_creaky.wav,https://benebular.github.io/pharylary/data/audio/170_creaky.wav,26.png,121.png,left,26.png,121.png,right,121.png,no,234,arctis,2026-01-28T03:28:49.547Z,,,,,,,,,,,,,,,,,,,,,,,,,,
test2,test2,,33,Trials,139,139_non-creaky.wav,https://benebular.github.io/pharylary/data/audio/139_non-creaky.wav,177.png,82.png,left,177.png,82.png,left,177.png,yes,443,arctis,2026-01-28T03:28:52.186Z,,,,,,,,,,,,,,,,,,,,,,,,,,
test2,test2,,34,Trials,88,88_non-creaky.wav,https://benebular.github.io/pharylary/data/audio/88_non-creaky.wav,96.png,1.png,right,1.png,96.png,right,96.png,yes,378,arctis,2026-01-28T03:28:55.020Z,,,,,,,,,,,,,,,,,,,,,,,,,,
test2,test2,,35,Trials,187,187_creaky.wav,https://benebular.github.io/pharylary/data/audio/187_creaky.wav,44.png,139.png,left,44.png,139.png,left,44.png,yes,284,arctis,2026-01-28T03:28:57.547Z,,,,,,,,,,,,,,,,,,,,,,,,,,
test2,test2,,36,Trials,154,154_creaky.wav,https://benebular.github.io/pharylary/data/audio/154_creaky.wav,10.png,104.png,left,10.png,104.png,left,10.png,yes,486,arctis,2026-01-28T03:29:00.708Z,,,,,,,,,,,,,,,,,,,,,,,,,,
test2,test2,,37,Trials,138,138_non-creaky.wav,https://benebular.github.io/pharylary/data/audio/138_non-creaky.wav,176.png,81.png,left,176.png,81.png,left,176.png,yes,364,arctis,2026-01-28T03:29:03.387Z,,,,,,,,,,,,,,,,,,,,,,,,,,
test2,test2,,38,Trials,201,201_creaky.wav,https://benebular.github.io/pharylary/data/audio/201_creaky.wav,62.png,157.png,right,157.png,62.png,right,62.png,yes,271,arctis,2026-01-28T03:29:05.853Z,,,,,,,,,,,,,,,,,,,,,,,,,,
test2,test2,,39,Trials,181,181_creaky.wav,https://benebular.github.io/pharylary/data/audio/181_creaky.wav,36.png,131.png,left,36.png,131.png,left,36.png,yes,234,arctis,2026-01-28T03:29:08.827Z,,,,,,,,,,,,,,,,,,,,,,,,,,
test2,test2,,40,Trials,28,28_non-creaky.wav,https://benebular.github.io/pharylary/data/audio/28_non-creaky.wav,28.png,123.png,left,28.png,123.png,left,28.png,yes,387,arctis,2026-01-28T03:29:11.640Z,,,,,,,,,,,,,,,,,,,,,,,,,,
test2,test2,,41,Trials,137,137_non-creaky.wav,https://benebular.github.io/pharylary/data/audio/137_non-creaky.wav,175.png,80.png,left,175.png,80.png,left,175.png,yes,290,arctis,2026-01-28T03:29:14.293Z,,,,,,,,,,,,,,,,,,,,,,,,,,
test2,test2,,42,Trials,168,168_creaky.wav,https://benebular.github.io/pharylary/data/audio/168_creaky.wav,24.png,119.png,left,24.png,119.png,left,24.png,yes,281,arctis,2026-01-28T03:29:17.043Z,,,,,,,,,,,,,,,,,,,,,,,,,,
test2,test2,,43,Trials,60,60_non-creaky.wav,https://benebular.github.io/pharylary/data/audio/60_non-creaky.wav,65.png,160.png,right,160.png,65.png,right,65.png,yes,262,arctis,2026-01-28T03:29:19.574Z,,,,,,,,,,,,,,,,,,,,,,,,,,
test2,test2,,44,Trials,218,218_creaky.wav,https://benebular.github.io/pharylary/data/audio/218_creaky.wav,82.png,177.png,left,82.png,177.png,left,82.png,yes,234,arctis,2026-01-28T03:29:22.238Z,,,,,,,,,,,,,,,,,,,,,,,,,,
test2,test2,,45,Trials,165,165_creaky.wav,https://benebular.github.io/pharylary/data/audio/165_creaky.wav,20.png,115.png,left,20.png,115.png,left,20.png,yes,348,arctis,2026-01-28T03:29:24.811Z,,,,,,,,,,,,,,,,,,,,,,,,,,
test2,test2,,46,Trials,232,232_creaky.wav,https://benebular.github.io/pharylary/data/audio/232_creaky.wav,96.png,1.png,left,96.png,1.png,left,96.png,yes,327,arctis,2026-01-28T03:29:27.310Z,,,,,,,,,,,,,,,,,,,,,,,,,,
test2,test2,,47,Trials,169,169_creaky.wav,https://benebular.github.io/pharylary/data/audio/169_creaky.wav,25.png,120.png,right,120.png,25.png,right,25.png,yes,294,arctis,2026-01-28T03:29:31.747Z,,,,,,,,,,,,,,,,,,,,,,,,,,
test2,test2,,48,Trials,250,250_creaky.wav,https://benebular.github.io/pharylary/data/audio/250_creaky.wav,125.png,30.png,right,30.png,125.png,right,125.png,yes,272,arctis,2026-01-28T03:29:34.355Z,,,,,,,,,,,,,,,,,,,,,,,,,,
test2,test2,,49,Trials,240,240_creaky.wav,https://benebular.github.io/pharylary/data/audio/240_creaky.wav,109.png,14.png,right,14.png,109.png,left,14.png,no,994,arctis,2026-01-28T03:29:37.507Z,,,,,,,,,,,,,,,,,,,,,,,,,,
test2,test2,,50,Trials,52,52_non-creaky.wav,https://benebular.github.io/pharylary/data/audio/52_non-creaky.wav,55.png,150.png,right,150.png,55.png,right,55.png,yes,260,arctis,2026-01-28T03:29:40.302Z,,,,,,,,,,,,,,,,,,,,,,,,,,
test2,test2,,51,Trials,3,3_non-creaky.wav,https://benebular.github.io/pharylary/data/audio/3_non-creaky.wav,3.png,98.png,right,98.png,3.png,right,3.png,yes,325,arctis,2026-01-28T03:29:42.968Z,,,,,,,,,,,,,,,,,,,,,,,,,,
test2,test2,,52,Trials,179,179_creaky.wav,https://benebular.github.io/pharylary/data/audio/179_creaky.wav,34.png,129.png,right,129.png,34.png,right,34.png,yes,267,arctis,2026-01-28T03:29:45.741Z,,,,,,,,,,,,,,,,,,,,,,,,,,
test2,test2,,53,Trials,10,10_non-creaky.wav,https://benebular.github.io/pharylary/data/audio/10_non-creaky.wav,10.png,104.png,left,10.png,104.png,left,10.png,yes,584,arctis,2026-01-28T03:29:48.986Z,,,,,,,,,,,,,,,,,,,,,,,,,,
test2,test2,,54,Trials,214,214_creaky.wav,https://benebular.github.io/pharylary/data/audio/214_creaky.wav,73.png,168.png,left,73.png,168.png,left,73.png,yes,405,arctis,2026-01-28T03:29:52.078Z,,,,,,,,,,,,,,,,,,,,,,,,,,
test2,test2,,55,Trials,111,111_non-creaky.wav,https://benebular.github.io/pharylary/data/audio/111_non-creaky.wav,137.png,42.png,left,137.png,42.png,left,137.png,yes,352,arctis,2026-01-28T03:29:54.704Z,,,,,,,,,,,,,,,,,,,,,,,,,,
test2,test2,,56,Trials,273,273_creaky.wav,https://benebular.github.io/pharylary/data/audio/273_creaky.wav,160.png,65.png,left,160.png,65.png,left,160.png,yes,236,arctis,2026-01-28T03:29:57.578Z,,,,,,,,,,,,,,,,,,,,,,,,,,
test2,test2,,,AttentionCheck,,,,,,,,,,,,,arctis,2026-01-28T03:30:03.912Z,,,,,,,,,,,,,,,,,,,,,,,,,,
test2,test2,,57,Trials,156,156_creaky.wav,https://benebular.github.io/pharylary/data/audio/156_creaky.wav,12.png,107.png,right,107.png,12.png,right,12.png,yes,477,arctis,2026-01-28T03:30:07.579Z,,,,,,,,,,,,,,,,,,,,,,,,,,
test2,test2,,58,Trials,166,166_creaky.wav,https://benebular.github.io/pharylary/data/audio/166_creaky.wav,22.png,117.png,left,22.png,117.png,left,22.png,yes,381,arctis,2026-01-28T03:30:10.782Z,,,,,,,,,,,,,,,,,,,,,,,,,,
test2,test2,,59,Trials,109,109_non-creaky.wav,https://benebular.github.io/pharylary/data/audio/109_non-creaky.wav,131.png,36.png,right,36.png,131.png,right,131.png,yes,396,arctis,2026-01-28T03:30:13.539Z,,,,,,,,,,,,,,,,,,,,,,,,,,
test2,test2,,60,Trials,213,213_creaky.wav,https://benebular.github.io/pharylary/data/audio/213_creaky.wav,72.png,167.png,right,167.png,72.png,right,72.png,yes,367,arctis,2026-01-28T03:30:16.329Z,,,,,,,,,,,,,,,,,,,,,,,,,,
test2,test2,,61,Trials,246,246_creaky.wav,https://benebular.github.io/pharylary/data/audio/246_creaky.wav,119.png,24.png,right,24.png,119.png,right,119.png,yes,314,arctis,2026-01-28T03:30:18.986Z,,,,,,,,,,,,,,,,,,,,,,,,,,
test2,test2,,62,Trials,287,287_creaky.wav,https://benebular.github.io/pharylary/data/audio/287_creaky.wav,181.png,86.png,left,181.png,86.png,left,181.png,yes,326,arctis,2026-01-28T03:30:21.937Z,,,,,,,,,,,,,,,,,,,,,,,,,,
test2,test2,,63,Trials,206,206_creaky.wav,https://benebular.github.io/pharylary/data/audio/206_creaky.wav,68.png,163.png,left,68.png,163.png,left,68.png,yes,3133,arctis,2026-01-28T03:30:27.484Z,,,,,,,,,,,,,,,,,,,,,,,,,,
test2,test2,,64,Trials,176,176_creaky.wav,https://benebular.github.io/pharylary/data/audio/176_creaky.wav,32.png,127.png,left,32.png,127.png,left,32.png,yes,361,arctis,2026-01-28T03:30:30.393Z,,,,,,,,,,,,,,,,,,,,,,,,,,
test2,test2,,65,Trials,1,1_non-creaky.wav,https://benebular.github.io/pharylary/data/audio/1_non-creaky.wav,1.png,96.png,left,1.png,96.png,left,1.png,yes,304,arctis,2026-01-28T03:30:33.237Z,,,,,,,,,,,,,,,,,,,,,,,,,,
test2,test2,,66,Trials,13,13_non-creaky.wav,https://benebular.github.io/pharylary/data/audio/13_non-creaky.wav,12.png,107.png,left,12.png,107.png,left,12.png,yes,448,arctis,2026-01-28T03:30:36.129Z,,,,,,,,,,,,,,,,,,,,,,,,,,
test2,test2,,67,Trials,253,253_creaky.wav,https://benebular.github.io/pharylary/data/audio/253_creaky.wav,131.png,36.png,left,131.png,36.png,left,131.png,yes,322,arctis,2026-01-28T03:30:39.074Z,,,,,,,,,,,,,,,,,,,,,,,,,,
test2,test2,,68,Trials,236,236_creaky.wav,https://benebular.github.io/pharylary/data/audio/236_creaky.wav,101.png,7.png,right,7.png,101.png,right,101.png,yes,319,arctis,2026-01-28T03:30:41.671Z,,,,,,,,,,,,,,,,,,,,,,,,,,
test2,test2,,69,Trials,242,242_creaky.wav,https://benebular.github.io/pharylary/data/audio/242_creaky.wav,113.png,18.png,left,113.png,18.png,left,113.png,yes,414,arctis,2026-01-28T03:30:44.766Z,,,,,,,,,,,,,,,,,,,,,,,,,,
test2,test2,,70,Trials,125,125_non-creaky.wav,https://benebular.github.io/pharylary/data/audio/125_non-creaky.wav,156.png,61.png,left,156.png,61.png,left,156.png,yes,41,arctis,2026-01-28T03:30:47.602Z,,,,,,,,,,,,,,,,,,,,,,,,,,
test2,test2,,71,Trials,261,261_creaky.wav,https://benebular.github.io/pharylary/data/audio/261_creaky.wav,146.png,51.png,left,146.png,51.png,left,146.png,yes,629,arctis,2026-01-28T03:30:50.811Z,,,,,,,,,,,,,,,,,,,,,,,,,,
test2,test2,,72,Trials,150,150_creaky.wav,https://benebular.github.io/pharylary/data/audio/150_creaky.wav,6.png,101.png,left,6.png,101.png,left,6.png,yes,570,arctis,2026-01-28T03:30:54.081Z,,,,,,,,,,,,,,,,,,,,,,,,,,
test2,test2,,73,Trials,105,105_non-creaky.wav,https://benebular.github.io/pharylary/data/audio/105_non-creaky.wav,123.png,28.png,right,28.png,123.png,right,123.png,yes,295,arctis,2026-01-28T03:30:56.846Z,,,,,,,,,,,,,,,,,,,,,,,,,,
test2,test2,,74,Trials,31,31_non-creaky.wav,https://benebular.github.io/pharylary/data/audio/31_non-creaky.wav,30.png,125.png,right,125.png,30.png,right,30.png,yes,327,arctis,2026-01-28T03:30:59.278Z,,,,,,,,,,,,,,,,,,,,,,,,,,
test2,test2,,75,Trials,152,152_creaky.wav,https://benebular.github.io/pharylary/data/audio/152_creaky.wav,6.png,101.png,left,6.png,101.png,left,6.png,yes,220,arctis,2026-01-28T03:31:02.171Z,,,,,,,,,,,,,,,,,,,,,,,,,,
test2,test2,,76,Trials,11,11_non-creaky.wav,https://benebular.github.io/pharylary/data/audio/11_non-creaky.wav,9.png,104.png,right,104.png,9.png,right,9.png,yes,16,arctis,2026-01-28T03:31:04.417Z,,,,,,,,,,,,,,,,,,,,,,,,,,
test2,test2,,77,Trials,55,55_non-creaky.wav,https://benebular.github.io/pharylary/data/audio/55_non-creaky.wav,60.png,155.png,left,60.png,155.png,left,60.png,yes,808,arctis,2026-01-28T03:31:07.399Z,,,,,,,,,,,,,,,,,,,,,,,,,,
test2,test2,,78,Trials,260,260_creaky.wav,https://benebular.github.io/pharylary/data/audio/260_creaky.wav,145.png,50.png,right,50.png,145.png,right,145.png,yes,624,arctis,2026-01-28T03:31:10.405Z,,,,,,,,,,,,,,,,,,,,,,,,,,
test2,test2,,79,Trials,73,73_non-creaky.wav,https://benebular.github.io/pharylary/data/audio/73_non-creaky.wav,81.png,176.png,left,81.png,176.png,left,81.png,yes,248,arctis,2026-01-28T03:31:13.039Z,,,,,,,,,,,,,,,,,,,,,,,,,,
test2,test2,,80,Trials,122,122_non-creaky.wav,https://benebular.github.io/pharylary/data/audio/122_non-creaky.wav,151.png,56.png,left,151.png,56.png,left,151.png,yes,345,arctis,2026-01-28T03:31:15.855Z,,,,,,,,,,,,,,,,,,,,,,,,,,
test2,test2,,81,Trials,144,144_non-creaky.wav,https://benebular.github.io/pharylary/data/audio/144_non-creaky.wav,182.png,87.png,left,182.png,87.png,left,182.png,yes,294,arctis,2026-01-28T03:31:18.526Z,,,,,,,,,,,,,,,,,,,,,,,,,,
test2,test2,,82,Trials,285,285_creaky.wav,https://benebular.github.io/pharylary/data/audio/285_creaky.wav,179.png,84.png,left,179.png,84.png,left,179.png,yes,38,arctis,2026-01-28T03:31:21.539Z,,,,,,,,,,,,,,,,,,,,,,,,,,
test2,test2,,83,Trials,183,183_creaky.wav,https://benebular.github.io/pharylary/data/audio/183_creaky.wav,40.png,135.png,left,40.png,135.png,left,40.png,yes,222,arctis,2026-01-28T03:31:24.372Z,,,,,,,,,,,,,,,,,,,,,,,,,,
test2,test2,,84,Trials,212,212_creaky.wav,https://benebular.github.io/pharylary/data/audio/212_creaky.wav,75.png,165.png,right,165.png,75.png,right,75.png,yes,138,arctis,2026-01-28T03:31:26.758Z,,,,,,,,,,,,,,,,,,,,,,,,,,
test2,test2,,,AttentionCheck,,,,,,,,,,,,,arctis,2026-01-28T03:31:32.297Z,,,,,,,,,,,,,,,,,,,,,,,,,,
test2,test2,,85,Trials,6,6_non-creaky.wav,https://benebular.github.io/pharylary/data/audio/6_non-creaky.wav,6.png,101.png,left,6.png,101.png,left,6.png,yes,390,arctis,2026-01-28T03:31:36.070Z,,,,,,,,,,,,,,,,,,,,,,,,,,
test2,test2,,86,Trials,2,2_non-creaky.wav,https://benebular.github.io/pharylary/data/audio/2_non-creaky.wav,1.png,96.png,right,96.png,1.png,right,1.png,yes,305,arctis,2026-01-28T03:31:38.666Z,,,,,,,,,,,,,,,,,,,,,,,,,,
test2,test2,,87,Trials,171,171_creaky.wav,https://benebular.github.io/pharylary/data/audio/171_creaky.wav,26.png,121.png,right,121.png,26.png,right,26.png,yes,272,arctis,2026-01-28T03:31:41.493Z,,,,,,,,,,,,,,,,,,,,,,,,,,
test2,test2,,88,Trials,286,286_creaky.wav,https://benebular.github.io/pharylary/data/audio/286_creaky.wav,180.png,85.png,right,85.png,180.png,right,180.png,yes,348,arctis,2026-01-28T03:31:44.270Z,,,,,,,,,,,,,,,,,,,,,,,,,,
test2,test2,,89,Trials,199,199_creaky.wav,https://benebular.github.io/pharylary/data/audio/199_creaky.wav,60.png,155.png,left,60.png,155.png,left,60.png,yes,382,arctis,2026-01-28T03:31:46.703Z,,,,,,,,,,,,,,,,,,,,,,,,,,
test2,test2,,90,Trials,278,278_creaky.wav,https://benebular.github.io/pharylary/data/audio/278_creaky.wav,167.png,72.png,right,72.png,167.png,right,167.png,yes,276,arctis,2026-01-28T03:31:49.376Z,,,,,,,,,,,,,,,,,,,,,,,,,,
test2,test2,,91,Trials,167,167_creaky.wav,https://benebular.github.io/pharylary/data/audio/167_creaky.wav,23.png,118.png,right,118.png,23.png,right,23.png,yes,286,arctis,2026-01-28T03:31:52.056Z,,,,,,,,,,,,,,,,,,,,,,,,,,
test2,test2,,92,Trials,48,48_non-creaky.wav,https://benebular.github.io/pharylary/data/audio/48_non-creaky.wav,51.png,146.png,left,51.png,146.png,left,51.png,yes,1086,arctis,2026-01-28T03:31:55.377Z,,,,,,,,,,,,,,,,,,,,,,,,,,
test2,test2,,93,Trials,233,233_creaky.wav,https://benebular.github.io/pharylary/data/audio/233_creaky.wav,98.png,3.png,right,3.png,98.png,left,3.png,no,138,arctis,2026-01-28T03:31:58.239Z,,,,,,,,,,,,,,,,,,,,,,,,,,
test2,test2,,94,Trials,222,222_creaky.wav,https://benebular.github.io/pharylary/data/audio/222_creaky.wav,86.png,181.png,right,181.png,86.png,right,86.png,yes,786,arctis,2026-01-28T03:32:01.936Z,,,,,,,,,,,,,,,,,,,,,,,,,,
test2,test2,,95,Trials,159,159_creaky.wav,https://benebular.github.io/pharylary/data/audio/159_creaky.wav,14.png,109.png,right,109.png,14.png,right,14.png,yes,314,arctis,2026-01-28T03:32:04.514Z,,,,,,,,,,,,,,,,,,,,,,,,,,
test2,test2,,96,Trials,147,147_creaky.wav,https://benebular.github.io/pharylary/data/audio/147_creaky.wav,3.png,98.png,right,98.png,3.png,right,3.png,yes,288,arctis,2026-01-28T03:32:07.348Z,,,,,,,,,,,,,,,,,,,,,,,,,,
test2,test2,,97,Trials,14,14_non-creaky.wav,https://benebular.github.io/pharylary/data/audio/14_non-creaky.wav,14.png,109.png,left,14.png,109.png,left,14.png,yes,695,arctis,2026-01-28T03:32:10.456Z,,,,,,,,,,,,,,,,,,,,,,,,,,
test2,test2,,98,Trials,68,68_non-creaky.wav,https://benebular.github.io/pharylary/data/audio/68_non-creaky.wav,75.png,165.png,left,75.png,165.png,left,75.png,yes,399,arctis,2026-01-28T03:32:13.008Z,,,,,,,,,,,,,,,,,,,,,,,,,,
test2,test2,,99,Trials,59,59_non-creaky.wav,https://benebular.github.io/pharylary/data/audio/59_non-creaky.wav,64.png,159.png,left,64.png,159.png,left,64.png,yes,111,arctis,2026-01-28T03:32:15.601Z,,,,,,,,,,,,,,,,,,,,,,,,,,
test2,test2,,100,Trials,49,49_non-creaky.wav,https://benebular.github.io/pharylary/data/audio/49_non-creaky.wav,52.png,147.png,left,52.png,147.png,left,52.png,yes,431,arctis,2026-01-28T03:32:18.251Z,,,,,,,,,,,,,,,,,,,,,,,,,,
test2,test2,,101,Trials,274,274_creaky.wav,https://benebular.github.io/pharylary/data/audio/274_creaky.wav,162.png,67.png,right,67.png,162.png,right,162.png,yes,67,arctis,2026-01-28T03:32:21.326Z,,,,,,,,,,,,,,,,,,,,,,,,,,
test2,test2,,102,Trials,157,157_creaky.wav,https://benebular.github.io/pharylary/data/audio/157_creaky.wav,12.png,107.png,right,107.png,12.png,right,12.png,yes,344,arctis,2026-01-28T03:32:24.385Z,,,,,,,,,,,,,,,,,,,,,,,,,,
test2,test2,,103,Trials,160,160_creaky.wav,https://benebular.github.io/pharylary/data/audio/160_creaky.wav,16.png,112.png,right,112.png,16.png,right,16.png,yes,165,arctis,2026-01-28T03:32:27.195Z,,,,,,,,,,,,,,,,,,,,,,,,,,
test2,test2,,104,Trials,24,24_non-creaky.wav,https://benebular.github.io/pharylary/data/audio/24_non-creaky.wav,24.png,119.png,left,24.png,119.png,right,119.png,no,295,arctis,2026-01-28T03:32:29.745Z,,,,,,,,,,,,,,,,,,,,,,,,,,
test2,test2,,105,Trials,251,251_creaky.wav,https://benebular.github.io/pharylary/data/audio/251_creaky.wav,127.png,32.png,left,127.png,32.png,left,127.png,yes,246,arctis,2026-01-28T03:32:32.245Z,,,,,,,,,,,,,,,,,,,,,,,,,,
test2,test2,,106,Trials,230,230_creaky.wav,https://benebular.github.io/pharylary/data/audio/230_creaky.wav,86.png,181.png,left,86.png,181.png,left,86.png,yes,112,arctis,2026-01-28T03:32:34.832Z,,,,,,,,,,,,,,,,,,,,,,,,,,
test2,test2,,107,Trials,42,42_non-creaky.wav,https://benebular.github.io/pharylary/data/audio/42_non-creaky.wav,44.png,139.png,left,44.png,139.png,left,44.png,yes,297,arctis,2026-01-28T03:32:37.388Z,,,,,,,,,,,,,,,,,,,,,,,,,,
test2,test2,,108,Trials,288,288_creaky.wav,https://benebular.github.io/pharylary/data/audio/288_creaky.wav,182.png,87.png,left,182.png,87.png,left,182.png,yes,11,arctis,2026-01-28T03:32:40.062Z,,,,,,,,,,,,,,,,,,,,,,,,,,
test2,test2,,109,Trials,203,203_creaky.wav,https://benebular.github.io/pharylary/data/audio/203_creaky.wav,64.png,159.png,right,159.png,64.png,right,64.png,yes,420,arctis,2026-01-28T03:32:43.409Z,,,,,,,,,,,,,,,,,,,,,,,,,,
test2,test2,,110,Trials,254,254_creaky.wav,https://benebular.github.io/pharylary/data/audio/254_creaky.wav,135.png,40.png,right,40.png,135.png,right,135.png,yes,309,arctis,2026-01-28T03:32:46.330Z,,,,,,,,,,,,,,,,,,,,,,,,,,
test2,test2,,111,Trials,149,149_creaky.wav,https://benebular.github.io/pharylary/data/audio/149_creaky.wav,4.png,99.png,right,99.png,4.png,right,4.png,yes,442,arctis,2026-01-28T03:32:49.021Z,,,,,,,,,,,,,,,,,,,,,,,,,,
test2,test2,,112,Trials,97,97_non-creaky.wav,https://benebular.github.io/pharylary/data/audio/97_non-creaky.wav,112.png,16.png,left,112.png,16.png,left,112.png,yes,262,arctis,2026-01-28T03:32:52.633Z,,,,,,,,,,,,,,,,,,,,,,,,,,
test2,test2,,,AttentionCheck,,,,,,,,,,,,,arctis,2026-01-28T03:32:58.926Z,,,,,,,,,,,,,,,,,,,,,,,,,,
test2,test2,,113,Trials,38,38_non-creaky.wav,https://benebular.github.io/pharylary/data/audio/38_non-creaky.wav,40.png,135.png,left,40.png,135.png,right,135.png,no,119,arctis,2026-01-28T03:33:01.870Z,,,,,,,,,,,,,,,,,,,,,,,,,,
test2,test2,,114,Trials,63,63_non-creaky.wav,https://benebular.github.io/pharylary/data/audio/63_non-creaky.wav,69.png,164.png,left,69.png,164.png,left,69.png,yes,265,arctis,2026-01-28T03:33:04.916Z,,,,,,,,,,,,,,,,,,,,,,,,,,
test2,test2,,115,Trials,26,26_non-creaky.wav,https://benebular.github.io/pharylary/data/audio/26_non-creaky.wav,26.png,121.png,right,121.png,26.png,right,26.png,yes,252,arctis,2026-01-28T03:33:07.523Z,,,,,,,,,,,,,,,,,,,,,,,,,,
test2,test2,,116,Trials,120,120_non-creaky.wav,https://benebular.github.io/pharylary/data/audio/120_non-creaky.wav,149.png,54.png,right,54.png,149.png,right,149.png,yes,279,arctis,2026-01-28T03:33:10.590Z,,,,,,,,,,,,,,,,,,,,,,,,,,
test2,test2,,117,Trials,129,129_non-creaky.wav,https://benebular.github.io/pharylary/data/audio/129_non-creaky.wav,160.png,65.png,right,65.png,160.png,right,160.png,yes,266,arctis,2026-01-28T03:33:13.157Z,,,,,,,,,,,,,,,,,,,,,,,,,,
test2,test2,,118,Trials,20,20_non-creaky.wav,https://benebular.github.io/pharylary/data/audio/20_non-creaky.wav,20.png,115.png,right,115.png,20.png,right,20.png,yes,273,arctis,2026-01-28T03:33:15.792Z,,,,,,,,,,,,,,,,,,,,,,,,,,
test2,test2,,119,Trials,114,114_non-creaky.wav,https://benebular.github.io/pharylary/data/audio/114_non-creaky.wav,142.png,47.png,left,142.png,47.png,left,142.png,yes,238,arctis,2026-01-28T03:33:18.298Z,,,,,,,,,,,,,,,,,,,,,,,,,,
test2,test2,,120,Trials,79,79_non-creaky.wav,https://benebular.github.io/pharylary/data/audio/79_non-creaky.wav,87.png,182.png,left,87.png,182.png,left,87.png,yes,318,arctis,2026-01-28T03:33:20.857Z,,,,,,,,,,,,,,,,,,,,,,,,,,
test2,test2,,121,Trials,40,40_non-creaky.wav,https://benebular.github.io/pharylary/data/audio/40_non-creaky.wav,42.png,137.png,left,42.png,137.png,left,42.png,yes,256,arctis,2026-01-28T03:33:23.656Z,,,,,,,,,,,,,,,,,,,,,,,,,,
test2,test2,,122,Trials,74,74_non-creaky.wav,https://benebular.github.io/pharylary/data/audio/74_non-creaky.wav,82.png,177.png,left,82.png,177.png,left,82.png,yes,314,arctis,2026-01-28T03:33:26.205Z,,,,,,,,,,,,,,,,,,,,,,,,,,
test2,test2,,123,Trials,257,257_creaky.wav,https://benebular.github.io/pharylary/data/audio/257_creaky.wav,141.png,46.png,right,46.png,141.png,right,141.png,yes,287,arctis,2026-01-28T03:33:28.727Z,,,,,,,,,,,,,,,,,,,,,,,,,,
test2,test2,,124,Trials,12,12_non-creaky.wav,https://benebular.github.io/pharylary/data/audio/12_non-creaky.wav,12.png,107.png,left,12.png,107.png,left,12.png,yes,276,arctis,2026-01-28T03:33:31.276Z,,,,,,,,,,,,,,,,,,,,,,,,,,
test2,test2,,125,Trials,29,29_non-creaky.wav,https://benebular.github.io/pharylary/data/audio/29_non-creaky.wav,28.png,123.png,right,123.png,28.png,right,28.png,yes,68,arctis,2026-01-28T03:33:33.769Z,,,,,,,,,,,,,,,,,,,,,,,,,,
test2,test2,,126,Trials,113,113_non-creaky.wav,https://benebular.github.io/pharylary/data/audio/113_non-creaky.wav,141.png,46.png,right,46.png,141.png,right,141.png,yes,221,arctis,2026-01-28T03:33:36.411Z,,,,,,,,,,,,,,,,,,,,,,,,,,
test2,test2,,127,Trials,16,16_non-creaky.wav,https://benebular.github.io/pharylary/data/audio/16_non-creaky.wav,16.png,112.png,right,112.png,16.png,right,16.png,yes,180,arctis,2026-01-28T03:33:39.251Z,,,,,,,,,,,,,,,,,,,,,,,,,,
test2,test2,,128,Trials,180,180_creaky.wav,https://benebular.github.io/pharylary/data/audio/180_creaky.wav,36.png,131.png,right,131.png,36.png,right,36.png,yes,152,arctis,2026-01-28T03:33:42.162Z,,,,,,,,,,,,,,,,,,,,,,,,,,
test2,test2,,129,Trials,249,249_creaky.wav,https://benebular.github.io/pharylary/data/audio/249_creaky.wav,123.png,28.png,right,28.png,123.png,right,123.png,yes,478,arctis,2026-01-28T03:33:45.268Z,,,,,,,,,,,,,,,,,,,,,,,,,,
test2,test2,,130,Trials,34,34_non-creaky.wav,https://benebular.github.io/pharylary/data/audio/34_non-creaky.wav,34.png,129.png,left,34.png,129.png,left,34.png,yes,283,arctis,2026-01-28T03:33:48.023Z,,,,,,,,,,,,,,,,,,,,,,,,,,
test2,test2,,131,Trials,8,8_non-creaky.wav,https://benebular.github.io/pharylary/data/audio/8_non-creaky.wav,6.png,101.png,right,101.png,6.png,right,6.png,yes,64,arctis,2026-01-28T03:33:50.274Z,,,,,,,,,,,,,,,,,,,,,,,,,,
test2,test2,,132,Trials,256,256_creaky.wav,https://benebular.github.io/pharylary/data/audio/256_creaky.wav,139.png,44.png,right,44.png,139.png,right,139.png,yes,216,arctis,2026-01-28T03:33:52.816Z,,,,,,,,,,,,,,,,,,,,,,,,,,
test2,test2,,133,Trials,108,108_non-creaky.wav,https://benebular.github.io/pharylary/data/audio/108_non-creaky.wav,129.png,34.png,right,34.png,129.png,right,129.png,yes,304,arctis,2026-01-28T03:33:55.543Z,,,,,,,,,,,,,,,,,,,,,,,,,,
test2,test2,,134,Trials,47,47_non-creaky.wav,https://benebular.github.io/pharylary/data/audio/47_non-creaky.wav,50.png,145.png,left,50.png,145.png,left,50.png,yes,650,arctis,2026-01-28T03:33:58.530Z,,,,,,,,,,,,,,,,,,,,,,,,,,
test2,test2,,135,Trials,76,76_non-creaky.wav,https://benebular.github.io/pharylary/data/audio/76_non-creaky.wav,84.png,179.png,right,179.png,84.png,right,84.png,yes,22,arctis,2026-01-28T03:34:00.862Z,,,,,,,,,,,,,,,,,,,,,,,,,,
test2,test2,,136,Trials,208,208_creaky.wav,https://benebular.github.io/pharylary/data/audio/208_creaky.wav,70.png,165.png,left,70.png,165.png,left,70.png,yes,177,arctis,2026-01-28T03:34:03.415Z,,,,,,,,,,,,,,,,,,,,,,,,,,
test2,test2,,137,Trials,239,239_creaky.wav,https://benebular.github.io/pharylary/data/audio/239_creaky.wav,107.png,12.png,right,12.png,107.png,right,107.png,yes,217,arctis,2026-01-28T03:34:06.676Z,,,,,,,,,,,,,,,,,,,,,,,,,,
test2,test2,,138,Trials,177,177_creaky.wav,https://benebular.github.io/pharylary/data/audio/177_creaky.wav,32.png,127.png,left,32.png,127.png,left,32.png,yes,135,arctis,2026-01-28T03:34:09.104Z,,,,,,,,,,,,,,,,,,,,,,,,,,
