participant_id,prolific_id,timestamp_iso,trial_index,block,trial_id,audio_file,audio_url,target_image,distractor_image,target_side,left_image,right_image,choice,choice_image,is_correct,reaction_time_ms,headphone_type,timestamp_iso.1,recognize,understand,meaning_match,msa_dialect,natural,dialect_best,dialect_second,understand_other,msa_instruction,msa_vowels,msa_reading,msa_listening,other_languages,percent_english,percent_arabic,percent_other,language_switching,family_preference,age,gender,country_of_residence,attention_audio,attention_response,attention_index,final_feedback,completion_code
68d4239be163cb15b16606a6,68d4239be163cb15b16606a6,2026-01-28T05:23:32.249Z,,Survey,69.0,69_non-creaky.wav,,72.png,,,,,,,,,Wired Headset,2026-01-28T05:23:32.249Z,7.0,7.0,7.0,dialect,6.0,,,,,,,,,,,,,,,,,,,,,
68d4239be163cb15b16606a6,68d4239be163cb15b16606a6,2026-01-28T05:24:33.959Z,,Survey,157.0,157_creaky.wav,,12.png,,,,,,,,,Wired Headset,2026-01-28T05:24:33.959Z,5.0,6.0,5.0,dialect,4.0,,,,,,,,,,,,,,,,,,,,,
68d4239be163cb15b16606a6,68d4239be163cb15b16606a6,2026-01-28T05:25:05.352Z,,Survey,263.0,263_creaky.wav,,148.png,,,,,,,,,Wired Headset,2026-01-28T05:25:05.352Z,7.0,6.0,7.0,both,5.0,,,,,,,,,,,,,,,,,,,,,
68d4239be163cb15b16606a6,68d4239be163cb15b16606a6,2026-01-28T05:25:53.865Z,,Survey,58.0,58_non-creaky.wav,,63.png,,,,,,,,,Wired Headset,2026-01-28T05:25:53.865Z,7.0,7.0,6.0,both,6.0,,,,,,,,,,,,,,,,,,,,,
68d4239be163cb15b16606a6,68d4239be163cb15b16606a6,2026-01-28T05:26:22.468Z,,Survey,12.0,12_non-creaky.wav,,12.png,,,,,,,,,Wired Headset,2026-01-28T05:26:22.468Z,4.0,4.0,4.0,msa,4.0,,,,,,,,,,,,,,,,,,,,,
68d4239be163cb15b16606a6,68d4239be163cb15b16606a6,2026-01-28T05:27:11.999Z,,Survey,30.0,30_non-creaky.wav,,30.png,,,,,,,,,Wired Headset,2026-01-28T05:27:11.999Z,1.0,1.0,1.0,msa,3.0,,,,,,,,,,,,,,,,,,,,,
68d4239be163cb15b16606a6,68d4239be163cb15b16606a6,2026-01-28T05:27:32.056Z,,Survey,74.0,74_non-creaky.wav,,82.png,,,,,,,,,Wired Headset,2026-01-28T05:27:32.056Z,7.0,7.0,7.0,msa,7.0,,,,,,,,,,,,,,,,,,,,,
68d4239be163cb15b16606a6,68d4239be163cb15b16606a6,2026-01-28T05:28:19.054Z,,Survey,32.0,32_non-creaky.wav,,32.png,,,,,,,,,Wired Headset,2026-01-28T05:28:19.054Z,5.0,5.0,5.0,msa,3.0,,,,,,,,,,,,,,,,,,,,,
68d4239be163cb15b16606a6,68d4239be163cb15b16606a6,2026-01-28T05:28:52.674Z,,Survey,249.0,249_creaky.wav,,123.png,,,,,,,,,Wired Headset,2026-01-28T05:28:52.674Z,4.0,6.0,4.0,msa,5.0,,,,,,,,,,,,,,,,,,,,,
68d4239be163cb15b16606a6,68d4239be163cb15b16606a6,2026-01-28T05:29:06.592Z,,Survey,3.0,3_non-creaky.wav,,3.png,,,,,,,,,Wired Headset,2026-01-28T05:29:06.592Z,7.0,7.0,7.0,both,7.0,,,,,,,,,,,,,,,,,,,,,
68d4239be163cb15b16606a6,68d4239be163cb15b16606a6,2026-01-28T05:29:32.535Z,,Survey,108.0,108_non-creaky.wav,,129.png,,,,,,,,,Wired Headset,2026-01-28T05:29:32.535Z,6.0,7.0,6.0,both,6.0,,,,,,,,,,,,,,,,,,,,,
68d4239be163cb15b16606a6,68d4239be163cb15b16606a6,2026-01-28T05:29:41.936Z,,Survey,82.0,82_non-creaky.wav,,82.png,,,,,,,,,Wired Headset,2026-01-28T05:29:41.936Z,6.0,7.0,6.0,dialect,7.0,,,,,,,,,,,,,,,,,,,,,
68d4239be163cb15b16606a6,68d4239be163cb15b16606a6,2026-01-28T05:30:31.726Z,,Survey,288.0,288_creaky.wav,,182.png,,,,,,,,,Wired Headset,2026-01-28T05:30:31.726Z,7.0,7.0,5.0,msa,6.0,,,,,,,,,,,,,,,,,,,,,
68d4239be163cb15b16606a6,68d4239be163cb15b16606a6,2026-01-28T05:31:00.492Z,,Survey,251.0,251_creaky.wav,,127.png,,,,,,,,,Wired Headset,2026-01-28T05:31:00.492Z,7.0,7.0,7.0,msa,7.0,,,,,,,,,,,,,,,,,,,,,
68d4239be163cb15b16606a6,68d4239be163cb15b16606a6,2026-01-28T05:31:15.348Z,,Survey,250.0,250_creaky.wav,,125.png,,,,,,,,,Wired Headset,2026-01-28T05:31:15.348Z,7.0,7.0,7.0,both,2.0,,,,,,,,,,,,,,,,,,,,,
68d4239be163cb15b16606a6,68d4239be163cb15b16606a6,2026-01-28T05:31:30.698Z,,Survey,182.0,182_creaky.wav,,40.png,,,,,,,,,Wired Headset,2026-01-28T05:31:30.698Z,7.0,7.0,7.0,msa,5.0,,,,,,,,,,,,,,,,,,,,,
68d4239be163cb15b16606a6,68d4239be163cb15b16606a6,2026-01-28T05:31:50.919Z,,Survey,115.0,115_non-creaky.wav,,143.png,,,,,,,,,Wired Headset,2026-01-28T05:31:50.919Z,7.0,7.0,7.0,msa,6.0,,,,,,,,,,,,,,,,,,,,,
68d4239be163cb15b16606a6,68d4239be163cb15b16606a6,2026-01-28T05:32:16.638Z,,Survey,124.0,124_non-creaky.wav,,155.png,,,,,,,,,Wired Headset,2026-01-28T05:32:16.638Z,7.0,7.0,7.0,msa,7.0,,,,,,,,,,,,,,,,,,,,,
68d4239be163cb15b16606a6,68d4239be163cb15b16606a6,2026-01-28T05:32:32.369Z,,Survey,148.0,148_creaky.wav,,4.png,,,,,,,,,Wired Headset,2026-01-28T05:32:32.369Z,7.0,7.0,7.0,msa,5.0,,,,,,,,,,,,,,,,,,,,,
68d4239be163cb15b16606a6,68d4239be163cb15b16606a6,2026-01-28T05:33:06.697Z,,Survey,61.0,61_non-creaky.wav,,67.png,,,,,,,,,Wired Headset,2026-01-28T05:33:06.697Z,7.0,7.0,7.0,dialect,3.0,,,,,,,,,,,,,,,,,,,,,
691290f8a9d2ff4090233076,691290f8a9d2ff4090233076,2026-01-28T05:33:24.523Z,,Survey,119.0,119_non-creaky.wav,,148.png,,,,,,,,,Wireless Jabra Headphones,2026-01-28T05:33:24.523Z,7.0,7.0,7.0,both,7.0,,,,,,,,,,,,,,,,,,,,,
691290f8a9d2ff4090233076,691290f8a9d2ff4090233076,2026-01-28T05:33:47.886Z,,Survey,68.0,68_non-creaky.wav,,75.png,,,,,,,,,Wireless Jabra Headphones,2026-01-28T05:33:47.886Z,7.0,7.0,7.0,dialect,2.0,,,,,,,,,,,,,,,,,,,,,
691290f8a9d2ff4090233076,691290f8a9d2ff4090233076,2026-01-28T05:34:00.267Z,,Survey,237.0,237_creaky.wav,,104.png,,,,,,,,,Wireless Jabra Headphones,2026-01-28T05:34:00.267Z,7.0,7.0,7.0,both,7.0,,,,,,,,,,,,,,,,,,,,,
68d4239be163cb15b16606a6,68d4239be163cb15b16606a6,2026-01-28T05:34:09.589Z,,Survey,37.0,37_non-creaky.wav,,36.png,,,,,,,,,Wired Headset,2026-01-28T05:34:09.589Z,7.0,7.0,7.0,dialect,4.0,,,,,,,,,,,,,,,,,,,,,
691290f8a9d2ff4090233076,691290f8a9d2ff4090233076,2026-01-28T05:34:11.300Z,,Survey,288.0,288_creaky.wav,,182.png,,,,,,,,,Wireless Jabra Headphones,2026-01-28T05:34:11.300Z,7.0,7.0,7.0,both,7.0,,,,,,,,,,,,,,,,,,,,,
68d4239be163cb15b16606a6,68d4239be163cb15b16606a6,2026-01-28T05:34:19.636Z,,Survey,286.0,286_creaky.wav,,180.png,,,,,,,,,Wired Headset,2026-01-28T05:34:19.636Z,7.0,7.0,7.0,both,2.0,,,,,,,,,,,,,,,,,,,,,
68c03814183fb278ae8ac1c9,68c03814183fb278ae8ac1c9,2026-01-28T05:34:26.249Z,,Survey,248.0,248_creaky.wav,,121.png,,,,,,,,,Baseus Bowie E20,2026-01-28T05:34:26.249Z,7.0,7.0,7.0,both,6.0,,,,,,,,,,,,,,,,,,,,,
691290f8a9d2ff4090233076,691290f8a9d2ff4090233076,2026-01-28T05:34:29.598Z,,Survey,97.0,97_non-creaky.wav,,112.png,,,,,,,,,Wireless Jabra Headphones,2026-01-28T05:34:29.598Z,5.0,7.0,7.0,both,7.0,,,,,,,,,,,,,,,,,,,,,
611b00c6f6cc82766cd07c16,611b00c6f6cc82766cd07c16,2026-01-28T05:34:39.669Z,,Survey,84.0,84_non-creaky.wav,,84.png,,,,,,,,,Wired Over-ear Headphones.,2026-01-28T05:34:39.669Z,5.0,6.0,7.0,dialect,4.0,,,,,,,,,,,,,,,,,,,,,
68d4239be163cb15b16606a6,68d4239be163cb15b16606a6,2026-01-28T05:34:38.492Z,,Survey,41.0,41_non-creaky.wav,,42.png,,,,,,,,,Wired Headset,2026-01-28T05:34:38.492Z,7.0,7.0,7.0,dialect,5.0,,,,,,,,,,,,,,,,,,,,,
691290f8a9d2ff4090233076,691290f8a9d2ff4090233076,2026-01-28T05:34:40.055Z,,Survey,3.0,3_non-creaky.wav,,3.png,,,,,,,,,Wireless Jabra Headphones,2026-01-28T05:34:40.055Z,7.0,7.0,7.0,both,7.0,,,,,,,,,,,,,,,,,,,,,
691290f8a9d2ff4090233076,691290f8a9d2ff4090233076,2026-01-28T05:34:55.007Z,,Survey,44.0,44_non-creaky.wav,,46.png,,,,,,,,,Wireless Jabra Headphones,2026-01-28T05:34:55.007Z,7.0,7.0,7.0,msa,7.0,,,,,,,,,,,,,,,,,,,,,
68d4239be163cb15b16606a6,68d4239be163cb15b16606a6,2026-01-28T05:34:56.267Z,,Survey,282.0,282_creaky.wav,,176.png,,,,,,,,,Wired Headset,2026-01-28T05:34:56.267Z,7.0,7.0,5.0,msa,5.0,,,,,,,,,,,,,,,,,,,,,
691290f8a9d2ff4090233076,691290f8a9d2ff4090233076,2026-01-28T05:35:07.154Z,,Survey,39.0,39_non-creaky.wav,,40.png,,,,,,,,,Wireless Jabra Headphones,2026-01-28T05:35:07.154Z,7.0,7.0,7.0,dialect,2.0,,,,,,,,,,,,,,,,,,,,,
68c03814183fb278ae8ac1c9,68c03814183fb278ae8ac1c9,2026-01-28T05:35:06.394Z,,Survey,221.0,221_creaky.wav,,85.png,,,,,,,,,Baseus Bowie E20,2026-01-28T05:35:06.394Z,5.0,7.0,5.0,both,7.0,,,,,,,,,,,,,,,,,,,,,
611b00c6f6cc82766cd07c16,611b00c6f6cc82766cd07c16,2026-01-28T05:35:16.377Z,,Survey,23.0,23_non-creaky.wav,,23.png,,,,,,,,,Wired Over-ear Headphones.,2026-01-28T05:35:16.377Z,6.0,6.0,7.0,msa,7.0,,,,,,,,,,,,,,,,,,,,,
691290f8a9d2ff4090233076,691290f8a9d2ff4090233076,2026-01-28T05:35:19.380Z,,Survey,241.0,241_creaky.wav,,112.png,,,,,,,,,Wireless Jabra Headphones,2026-01-28T05:35:19.380Z,6.0,7.0,7.0,both,7.0,,,,,,,,,,,,,,,,,,,,,
691290f8a9d2ff4090233076,691290f8a9d2ff4090233076,2026-01-28T05:35:34.589Z,,Survey,56.0,56_non-creaky.wav,,61.png,,,,,,,,,Wireless Jabra Headphones,2026-01-28T05:35:34.589Z,7.0,7.0,7.0,msa,7.0,,,,,,,,,,,,,,,,,,,,,
68d4239be163cb15b16606a6,68d4239be163cb15b16606a6,2026-01-28T05:35:41.730Z,,Survey,39.0,39_non-creaky.wav,,40.png,,,,,,,,,Wired Headset,2026-01-28T05:35:41.730Z,7.0,7.0,7.0,dialect,6.0,,,,,,,,,,,,,,,,,,,,,
691290f8a9d2ff4090233076,691290f8a9d2ff4090233076,2026-01-28T05:35:50.195Z,,Survey,132.0,132_non-creaky.wav,,164.png,,,,,,,,,Wireless Jabra Headphones,2026-01-28T05:35:50.195Z,7.0,7.0,7.0,msa,7.0,,,,,,,,,,,,,,,,,,,,,
611b00c6f6cc82766cd07c16,611b00c6f6cc82766cd07c16,2026-01-28T05:35:51.959Z,,Survey,245.0,245_creaky.wav,,118.png,,,,,,,,,Wired Over-ear Headphones.,2026-01-28T05:35:51.959Z,6.0,6.0,1.0,msa,6.0,,,,,,,,,,,,,,,,,,,,,
68d4239be163cb15b16606a6,68d4239be163cb15b16606a6,2026-01-28T05:35:57.357Z,,Survey,103.0,103_non-creaky.wav,,120.png,,,,,,,,,Wired Headset,2026-01-28T05:35:57.357Z,7.0,7.0,7.0,both,6.0,,,,,,,,,,,,,,,,,,,,,
691290f8a9d2ff4090233076,691290f8a9d2ff4090233076,2026-01-28T05:36:04.693Z,,Survey,174.0,174_creaky.wav,,30.png,,,,,,,,,Wireless Jabra Headphones,2026-01-28T05:36:04.693Z,1.0,1.0,4.0,dialect,1.0,,,,,,,,,,,,,,,,,,,,,
611b00c6f6cc82766cd07c16,611b00c6f6cc82766cd07c16,2026-01-28T05:36:07.685Z,,Survey,252.0,252_creaky.wav,,129.png,,,,,,,,,Wired Over-ear Headphones.,2026-01-28T05:36:07.685Z,7.0,7.0,7.0,msa,5.0,,,,,,,,,,,,,,,,,,,,,
68d4239be163cb15b16606a6,68d4239be163cb15b16606a6,2026-01-28T05:36:11.149Z,,Survey,274.0,274_creaky.wav,,162.png,,,,,,,,,Wired Headset,2026-01-28T05:36:11.149Z,7.0,7.0,7.0,msa,5.0,,,,,,,,,,,,,,,,,,,,,
68d4239be163cb15b16606a6,68d4239be163cb15b16606a6,2026-01-28T05:36:20.632Z,,Survey,189.0,189_creaky.wav,,47.png,,,,,,,,,Wired Headset,2026-01-28T05:36:20.632Z,7.0,7.0,7.0,msa,6.0,,,,,,,,,,,,,,,,,,,,,
691290f8a9d2ff4090233076,691290f8a9d2ff4090233076,2026-01-28T05:36:23.207Z,,Survey,151.0,151_creaky.wav,,7.png,,,,,,,,,Wireless Jabra Headphones,2026-01-28T05:36:23.207Z,3.0,5.0,7.0,msa,5.0,,,,,,,,,,,,,,,,,,,,,
68d4239be163cb15b16606a6,68d4239be163cb15b16606a6,2026-01-28T05:36:34.706Z,,Survey,174.0,174_creaky.wav,,30.png,,,,,,,,,Wired Headset,2026-01-28T05:36:34.706Z,1.0,1.0,4.0,msa,4.0,,,,,,,,,,,,,,,,,,,,,
691290f8a9d2ff4090233076,691290f8a9d2ff4090233076,2026-01-28T05:36:35.910Z,,Survey,279.0,279_creaky.wav,,168.png,,,,,,,,,Wireless Jabra Headphones,2026-01-28T05:36:35.910Z,7.0,7.0,7.0,msa,7.0,,,,,,,,,,,,,,,,,,,,,
611b00c6f6cc82766cd07c16,611b00c6f6cc82766cd07c16,2026-01-28T05:36:38.033Z,,Survey,102.0,102_non-creaky.wav,,119.png,,,,,,,,,Wired Over-ear Headphones.,2026-01-28T05:36:38.033Z,7.0,6.0,5.0,both,5.0,,,,,,,,,,,,,,,,,,,,,
691290f8a9d2ff4090233076,691290f8a9d2ff4090233076,2026-01-28T05:36:48.398Z,,Survey,189.0,189_creaky.wav,,47.png,,,,,,,,,Wireless Jabra Headphones,2026-01-28T05:36:48.398Z,7.0,7.0,7.0,msa,7.0,,,,,,,,,,,,,,,,,,,,,
691290f8a9d2ff4090233076,691290f8a9d2ff4090233076,2026-01-28T05:36:59.809Z,,Survey,67.0,67_non-creaky.wav,,74.png,,,,,,,,,Wireless Jabra Headphones,2026-01-28T05:36:59.809Z,7.0,7.0,7.0,msa,7.0,,,,,,,,,,,,,,,,,,,,,
611b00c6f6cc82766cd07c16,611b00c6f6cc82766cd07c16,2026-01-28T05:37:05.631Z,,Survey,141.0,141_non-creaky.wav,,179.png,,,,,,,,,Wired Over-ear Headphones.,2026-01-28T05:37:05.631Z,6.0,6.0,7.0,msa,6.0,,,,,,,,,,,,,,,,,,,,,
68d4239be163cb15b16606a6,68d4239be163cb15b16606a6,2026-01-28T05:37:09.639Z,,Survey,125.0,125_non-creaky.wav,,156.png,,,,,,,,,Wired Headset,2026-01-28T05:37:09.639Z,7.0,7.0,2.0,both,5.0,,,,,,,,,,,,,,,,,,,,,
691290f8a9d2ff4090233076,691290f8a9d2ff4090233076,2026-01-28T05:37:13.567Z,,Survey,32.0,32_non-creaky.wav,,32.png,,,,,,,,,Wireless Jabra Headphones,2026-01-28T05:37:13.567Z,5.0,6.0,7.0,msa,7.0,,,,,,,,,,,,,,,,,,,,,
68d4239be163cb15b16606a6,68d4239be163cb15b16606a6,2026-01-28T05:37:16.782Z,,Survey,31.0,31_non-creaky.wav,,30.png,,,,,,,,,Wired Headset,2026-01-28T05:37:16.782Z,1.0,1.0,4.0,msa,4.0,,,,,,,,,,,,,,,,,,,,,
691290f8a9d2ff4090233076,691290f8a9d2ff4090233076,2026-01-28T05:37:26.379Z,,Survey,125.0,125_non-creaky.wav,,156.png,,,,,,,,,Wireless Jabra Headphones,2026-01-28T05:37:26.379Z,7.0,7.0,7.0,both,7.0,,,,,,,,,,,,,,,,,,,,,
611b00c6f6cc82766cd07c16,611b00c6f6cc82766cd07c16,2026-01-28T05:37:29.987Z,,Survey,100.0,100_non-creaky.wav,,117.png,,,,,,,,,Wired Over-ear Headphones.,2026-01-28T05:37:29.987Z,7.0,6.0,5.0,msa,6.0,,,,,,,,,,,,,,,,,,,,,
691290f8a9d2ff4090233076,691290f8a9d2ff4090233076,2026-01-28T05:37:35.187Z,,Survey,94.0,94_non-creaky.wav,,104.png,,,,,,,,,Wireless Jabra Headphones,2026-01-28T05:37:35.187Z,7.0,7.0,7.0,both,7.0,,,,,,,,,,,,,,,,,,,,,
68d4239be163cb15b16606a6,68d4239be163cb15b16606a6,2026-01-28T05:37:34.886Z,,Survey,112.0,112_non-creaky.wav,,139.png,,,,,,,,,Wired Headset,2026-01-28T05:37:34.886Z,7.0,7.0,7.0,both,6.0,,,,,,,,,,,,,,,,,,,,,
68d4239be163cb15b16606a6,68d4239be163cb15b16606a6,2026-01-28T05:37:54.982Z,,Survey,4.0,4_non-creaky.wav,,4.png,,,,,,,,,Wired Headset,2026-01-28T05:37:54.982Z,7.0,7.0,5.0,msa,6.0,,,,,,,,,,,,,,,,,,,,,
691290f8a9d2ff4090233076,691290f8a9d2ff4090233076,2026-01-28T05:37:56.549Z,,Survey,150.0,150_creaky.wav,,6.png,,,,,,,,,Wireless Jabra Headphones,2026-01-28T05:37:56.549Z,5.0,4.0,6.0,msa,7.0,,,,,,,,,,,,,,,,,,,,,
611b00c6f6cc82766cd07c16,611b00c6f6cc82766cd07c16,2026-01-28T05:38:00.982Z,,Survey,111.0,111_non-creaky.wav,,137.png,,,,,,,,,Wired Over-ear Headphones.,2026-01-28T05:38:00.982Z,4.0,5.0,1.0,msa,4.0,,,,,,,,,,,,,,,,,,,,,
68d4239be163cb15b16606a6,68d4239be163cb15b16606a6,2026-01-28T05:38:05.088Z,,Survey,215.0,215_creaky.wav,,74.png,,,,,,,,,Wired Headset,2026-01-28T05:38:05.088Z,7.0,7.0,7.0,dialect,5.0,,,,,,,,,,,,,,,,,,,,,
691290f8a9d2ff4090233076,691290f8a9d2ff4090233076,2026-01-28T05:38:16.083Z,,Survey,164.0,164_creaky.wav,,20.png,,,,,,,,,Wireless Jabra Headphones,2026-01-28T05:38:16.083Z,1.0,2.0,4.0,msa,7.0,,,,,,,,,,,,,,,,,,,,,
691290f8a9d2ff4090233076,691290f8a9d2ff4090233076,2026-01-28T05:38:27.403Z,,Survey,185.0,185_creaky.wav,,42.png,,,,,,,,,Wireless Jabra Headphones,2026-01-28T05:38:27.403Z,7.0,7.0,7.0,dialect,2.0,,,,,,,,,,,,,,,,,,,,,
611b00c6f6cc82766cd07c16,611b00c6f6cc82766cd07c16,2026-01-28T05:38:35.940Z,,Survey,7.0,7_non-creaky.wav,,7.png,,,,,,,,,Wired Over-ear Headphones.,2026-01-28T05:38:35.940Z,6.0,5.0,2.0,msa,5.0,,,,,,,,,,,,,,,,,,,,,
691290f8a9d2ff4090233076,691290f8a9d2ff4090233076,2026-01-28T05:38:39.079Z,,Survey,253.0,253_creaky.wav,,131.png,,,,,,,,,Wireless Jabra Headphones,2026-01-28T05:38:39.079Z,7.0,7.0,7.0,msa,7.0,,,,,,,,,,,,,,,,,,,,,
691290f8a9d2ff4090233076,691290f8a9d2ff4090233076,2026-01-28T05:38:47.523Z,,Survey,114.0,114_non-creaky.wav,,142.png,,,,,,,,,Wireless Jabra Headphones,2026-01-28T05:38:47.523Z,7.0,7.0,7.0,both,7.0,,,,,,,,,,,,,,,,,,,,,
691290f8a9d2ff4090233076,691290f8a9d2ff4090233076,2026-01-28T05:38:56.534Z,,Survey,38.0,38_non-creaky.wav,,40.png,,,,,,,,,Wireless Jabra Headphones,2026-01-28T05:38:56.534Z,7.0,7.0,7.0,msa,7.0,,,,,,,,,,,,,,,,,,,,,
68d4239be163cb15b16606a6,68d4239be163cb15b16606a6,2026-01-28T05:39:05.912Z,,Survey,90.0,90_non-creaky.wav,,99.png,,,,,,,,,Wired Headset,2026-01-28T05:39:05.912Z,5.0,6.0,6.0,dialect,5.0,,,,,,,,,,,,,,,,,,,,,
611b00c6f6cc82766cd07c16,611b00c6f6cc82766cd07c16,2026-01-28T05:39:09.966Z,,Survey,8.0,8_non-creaky.wav,,6.png,,,,,,,,,Wired Over-ear Headphones.,2026-01-28T05:39:09.966Z,1.0,,1.0,dialect,1.0,,,,,,,,,,,,,,,,,,,,,
691290f8a9d2ff4090233076,691290f8a9d2ff4090233076,2026-01-28T05:39:11.051Z,,Survey,249.0,249_creaky.wav,,123.png,,,,,,,,,Wireless Jabra Headphones,2026-01-28T05:39:11.051Z,7.0,7.0,7.0,both,7.0,,,,,,,,,,,,,,,,,,,,,
691290f8a9d2ff4090233076,691290f8a9d2ff4090233076,2026-01-28T05:39:26.637Z,,Survey,81.0,81_non-creaky.wav,,81.png,,,,,,,,,Wireless Jabra Headphones,2026-01-28T05:39:26.637Z,7.0,7.0,7.0,dialect,2.0,,,,,,,,,,,,,,,,,,,,,
611b00c6f6cc82766cd07c16,611b00c6f6cc82766cd07c16,2026-01-28T05:39:27.597Z,,Survey,61.0,61_non-creaky.wav,,67.png,,,,,,,,,Wired Over-ear Headphones.,2026-01-28T05:39:27.597Z,6.0,5.0,6.0,msa,5.0,,,,,,,,,,,,,,,,,,,,,
691290f8a9d2ff4090233076,691290f8a9d2ff4090233076,2026-01-28T05:39:37.709Z,,Survey,131.0,131_non-creaky.wav,,163.png,,,,,,,,,Wireless Jabra Headphones,2026-01-28T05:39:37.709Z,7.0,7.0,7.0,msa,7.0,,,,,,,,,,,,,,,,,,,,,
611b00c6f6cc82766cd07c16,611b00c6f6cc82766cd07c16,2026-01-28T05:39:41.072Z,,Survey,93.0,93_non-creaky.wav,,104.png,,,,,,,,,Wired Over-ear Headphones.,2026-01-28T05:39:41.072Z,7.0,7.0,7.0,both,7.0,,,,,,,,,,,,,,,,,,,,,
68d4239be163cb15b16606a6,68d4239be163cb15b16606a6,2026-01-28T05:39:41.207Z,,Survey,180.0,180_creaky.wav,,36.png,,,,,,,,,Wired Headset,2026-01-28T05:39:41.207Z,5.0,7.0,7.0,msa,5.0,,,,,,,,,,,,,,,,,,,,,
691290f8a9d2ff4090233076,691290f8a9d2ff4090233076,2026-01-28T05:39:45.905Z,,Survey,72.0,72_non-creaky.wav,,80.png,,,,,,,,,Wireless Jabra Headphones,2026-01-28T05:39:45.905Z,7.0,7.0,7.0,msa,7.0,,,,,,,,,,,,,,,,,,,,,
68d4239be163cb15b16606a6,68d4239be163cb15b16606a6,2026-01-28T05:39:54.123Z,,Survey,260.0,260_creaky.wav,,145.png,,,,,,,,,Wired Headset,2026-01-28T05:39:54.123Z,6.0,7.0,7.0,both,3.0,,,,,,,,,,,,,,,,,,,,,
691290f8a9d2ff4090233076,691290f8a9d2ff4090233076,2026-01-28T05:40:01.409Z,,Survey,117.0,117_non-creaky.wav,,146.png,,,,,,,,,Wireless Jabra Headphones,2026-01-28T05:40:01.409Z,7.0,7.0,7.0,both,7.0,,,,,,,,,,,,,,,,,,,,,
611b00c6f6cc82766cd07c16,611b00c6f6cc82766cd07c16,2026-01-28T05:40:02.746Z,,Survey,95.0,95_non-creaky.wav,,107.png,,,,,,,,,Wired Over-ear Headphones.,2026-01-28T05:40:02.746Z,7.0,7.0,7.0,both,6.0,,,,,,,,,,,,,,,,,,,,,
691290f8a9d2ff4090233076,691290f8a9d2ff4090233076,2026-01-28T05:40:08.133Z,,Survey,118.0,118_non-creaky.wav,,147.png,,,,,,,,,Wireless Jabra Headphones,2026-01-28T05:40:08.133Z,7.0,7.0,7.0,both,7.0,,,,,,,,,,,,,,,,,,,,,
691290f8a9d2ff4090233076,691290f8a9d2ff4090233076,2026-01-28T05:40:16.021Z,,Survey,199.0,199_creaky.wav,,60.png,,,,,,,,,Wireless Jabra Headphones,2026-01-28T05:40:16.021Z,7.0,7.0,7.0,both,7.0,,,,,,,,,,,,,,,,,,,,,
691290f8a9d2ff4090233076,691290f8a9d2ff4090233076,2026-01-28T05:40:24.878Z,,Survey,84.0,84_non-creaky.wav,,84.png,,,,,,,,,Wireless Jabra Headphones,2026-01-28T05:40:24.878Z,7.0,7.0,7.0,dialect,2.0,,,,,,,,,,,,,,,,,,,,,
68d4239be163cb15b16606a6,68d4239be163cb15b16606a6,2026-01-28T05:40:25.887Z,,Survey,76.0,76_non-creaky.wav,,84.png,,,,,,,,,Wired Headset,2026-01-28T05:40:25.887Z,5.0,7.0,5.0,msa,6.0,,,,,,,,,,,,,,,,,,,,,
691290f8a9d2ff4090233076,691290f8a9d2ff4090233076,2026-01-28T05:40:33.882Z,,Survey,187.0,187_creaky.wav,,44.png,,,,,,,,,Wireless Jabra Headphones,2026-01-28T05:40:33.882Z,7.0,7.0,7.0,dialect,2.0,,,,,,,,,,,,,,,,,,,,,
611b00c6f6cc82766cd07c16,611b00c6f6cc82766cd07c16,2026-01-28T05:40:40.262Z,,Survey,260.0,260_creaky.wav,,145.png,,,,,,,,,Wired Over-ear Headphones.,2026-01-28T05:40:40.262Z,7.0,7.0,7.0,both,5.0,,,,,,,,,,,,,,,,,,,,,
691290f8a9d2ff4090233076,691290f8a9d2ff4090233076,2026-01-28T05:40:43.597Z,,Survey,121.0,121_non-creaky.wav,,150.png,,,,,,,,,Wireless Jabra Headphones,2026-01-28T05:40:43.597Z,7.0,7.0,7.0,msa,7.0,,,,,,,,,,,,,,,,,,,,,
691290f8a9d2ff4090233076,691290f8a9d2ff4090233076,2026-01-28T05:40:52.640Z,,Survey,285.0,285_creaky.wav,,179.png,,,,,,,,,Wireless Jabra Headphones,2026-01-28T05:40:52.640Z,7.0,7.0,7.0,both,7.0,,,,,,,,,,,,,,,,,,,,,
691290f8a9d2ff4090233076,691290f8a9d2ff4090233076,2026-01-28T05:41:02.483Z,,Survey,112.0,112_non-creaky.wav,,139.png,,,,,,,,,Wireless Jabra Headphones,2026-01-28T05:41:02.483Z,7.0,7.0,7.0,both,7.0,,,,,,,,,,,,,,,,,,,,,
691290f8a9d2ff4090233076,691290f8a9d2ff4090233076,2026-01-28T05:41:11.437Z,,Survey,113.0,113_non-creaky.wav,,141.png,,,,,,,,,Wireless Jabra Headphones,2026-01-28T05:41:11.437Z,7.0,7.0,7.0,both,7.0,,,,,,,,,,,,,,,,,,,,,
68d4239be163cb15b16606a6,68d4239be163cb15b16606a6,2026-01-28T05:41:13.823Z,,Survey,36.0,36_non-creaky.wav,,36.png,,,,,,,,,Wired Headset,2026-01-28T05:41:13.823Z,5.0,7.0,6.0,both,5.0,,,,,,,,,,,,,,,,,,,,,
691290f8a9d2ff4090233076,691290f8a9d2ff4090233076,2026-01-28T05:41:24.344Z,,Survey,204.0,204_creaky.wav,,65.png,,,,,,,,,Wireless Jabra Headphones,2026-01-28T05:41:24.344Z,7.0,7.0,5.0,both,7.0,,,,,,,,,,,,,,,,,,,,,
611b00c6f6cc82766cd07c16,611b00c6f6cc82766cd07c16,2026-01-28T05:41:25.328Z,,Survey,216.0,216_creaky.wav,,80.png,,,,,,,,,Wired Over-ear Headphones.,2026-01-28T05:41:25.328Z,6.0,6.0,7.0,msa,6.0,,,,,,,,,,,,,,,,,,,,,
691290f8a9d2ff4090233076,691290f8a9d2ff4090233076,2026-01-28T05:41:32.038Z,,Survey,193.0,193_creaky.wav,,52.png,,,,,,,,,Wireless Jabra Headphones,2026-01-28T05:41:32.038Z,7.0,7.0,7.0,both,7.0,,,,,,,,,,,,,,,,,,,,,
68d4239be163cb15b16606a6,68d4239be163cb15b16606a6,2026-01-28T05:41:34.924Z,,Survey,190.0,190_creaky.wav,,48.png,,,,,,,,,Wired Headset,2026-01-28T05:41:34.924Z,6.0,7.0,7.0,msa,6.0,,,,,,,,,,,,,,,,,,,,,
611b00c6f6cc82766cd07c16,611b00c6f6cc82766cd07c16,2026-01-28T05:41:42.351Z,,Survey,67.0,67_non-creaky.wav,,74.png,,,,,,,,,Wired Over-ear Headphones.,2026-01-28T05:41:42.351Z,7.0,7.0,7.0,msa,7.0,,,,,,,,,,,,,,,,,,,,,
691290f8a9d2ff4090233076,691290f8a9d2ff4090233076,2026-01-28T05:41:48.554Z,,Survey,166.0,166_creaky.wav,,22.png,,,,,,,,,Wireless Jabra Headphones,2026-01-28T05:41:48.554Z,7.0,7.0,2.0,both,7.0,,,,,,,,,,,,,,,,,,,,,
691290f8a9d2ff4090233076,691290f8a9d2ff4090233076,2026-01-28T05:41:58.625Z,,Survey,165.0,165_creaky.wav,,20.png,,,,,,,,,Wireless Jabra Headphones,2026-01-28T05:41:58.625Z,1.0,1.0,4.0,dialect,1.0,,,,,,,,,,,,,,,,,,,,,
68d4239be163cb15b16606a6,68d4239be163cb15b16606a6,2026-01-28T05:42:05.305Z,,Survey,253.0,253_creaky.wav,,131.png,,,,,,,,,Wired Headset,2026-01-28T05:42:05.305Z,5.0,7.0,7.0,both,6.0,,,,,,,,,,,,,,,,,,,,,
691290f8a9d2ff4090233076,691290f8a9d2ff4090233076,2026-01-28T05:42:11.893Z,,Survey,171.0,171_creaky.wav,,26.png,,,,,,,,,Wireless Jabra Headphones,2026-01-28T05:42:11.893Z,2.0,2.0,4.0,dialect,2.0,,,,,,,,,,,,,,,,,,,,,
68d4239be163cb15b16606a6,68d4239be163cb15b16606a6,2026-01-28T05:42:28.063Z,,Survey,161.0,161_creaky.wav,,16.png,,,,,,,,,Wired Headset,2026-01-28T05:42:28.063Z,6.0,7.0,7.0,dialect,3.0,,,,,,,,,,,,,,,,,,,,,
691290f8a9d2ff4090233076,691290f8a9d2ff4090233076,2026-01-28T05:42:30.933Z,,Survey,242.0,242_creaky.wav,,113.png,,,,,,,,,Wireless Jabra Headphones,2026-01-28T05:42:30.933Z,7.0,7.0,7.0,both,7.0,,,,,,,,,,,,,,,,,,,,,
611b00c6f6cc82766cd07c16,611b00c6f6cc82766cd07c16,2026-01-28T05:42:35.851Z,,Survey,225.0,225_creaky.wav,,81.png,,,,,,,,,Wired Over-ear Headphones.,2026-01-28T05:42:35.851Z,7.0,7.0,7.0,both,6.0,,,,,,,,,,,,,,,,,,,,,
691290f8a9d2ff4090233076,691290f8a9d2ff4090233076,2026-01-28T05:42:45.383Z,,Survey,136.0,136_non-creaky.wav,,169.png,,,,,,,,,Wireless Jabra Headphones,2026-01-28T05:42:45.383Z,7.0,7.0,3.0,msa,7.0,,,,,,,,,,,,,,,,,,,,,
691290f8a9d2ff4090233076,691290f8a9d2ff4090233076,2026-01-28T05:42:53.497Z,,Survey,202.0,202_creaky.wav,,63.png,,,,,,,,,Wireless Jabra Headphones,2026-01-28T05:42:53.497Z,7.0,7.0,7.0,both,7.0,,,,,,,,,,,,,,,,,,,,,
691290f8a9d2ff4090233076,691290f8a9d2ff4090233076,2026-01-28T05:43:03.663Z,,Survey,53.0,53_non-creaky.wav,,56.png,,,,,,,,,Wireless Jabra Headphones,2026-01-28T05:43:03.663Z,7.0,7.0,7.0,msa,7.0,,,,,,,,,,,,,,,,,,,,,
611b00c6f6cc82766cd07c16,611b00c6f6cc82766cd07c16,2026-01-28T05:43:14.775Z,,Survey,125.0,125_non-creaky.wav,,156.png,,,,,,,,,Wired Over-ear Headphones.,2026-01-28T05:43:14.775Z,6.0,6.0,1.0,msa,3.0,,,,,,,,,,,,,,,,,,,,,
691290f8a9d2ff4090233076,691290f8a9d2ff4090233076,2026-01-28T05:43:16.449Z,,Survey,152.0,152_creaky.wav,,6.png,,,,,,,,,Wireless Jabra Headphones,2026-01-28T05:43:16.449Z,2.0,,4.0,dialect,1.0,,,,,,,,,,,,,,,,,,,,,
691290f8a9d2ff4090233076,691290f8a9d2ff4090233076,2026-01-28T05:43:23.544Z,,Survey,201.0,201_creaky.wav,,62.png,,,,,,,,,Wireless Jabra Headphones,2026-01-28T05:43:23.544Z,7.0,7.0,7.0,both,7.0,,,,,,,,,,,,,,,,,,,,,
611b00c6f6cc82766cd07c16,611b00c6f6cc82766cd07c16,2026-01-28T05:43:34.511Z,,Survey,64.0,64_non-creaky.wav,,70.png,,,,,,,,,Wired Over-ear Headphones.,2026-01-28T05:43:34.511Z,7.0,7.0,6.0,msa,2.0,,,,,,,,,,,,,,,,,,,,,
691290f8a9d2ff4090233076,691290f8a9d2ff4090233076,2026-01-28T05:43:34.349Z,,Survey,283.0,283_creaky.wav,,177.png,,,,,,,,,Wireless Jabra Headphones,2026-01-28T05:43:34.349Z,7.0,7.0,7.0,msa,7.0,,,,,,,,,,,,,,,,,,,,,
68d4239be163cb15b16606a6,68d4239be163cb15b16606a6,2026-01-28T05:43:46.107Z,,Survey,100.0,100_non-creaky.wav,,117.png,,,,,,,,,Wired Headset,2026-01-28T05:43:46.107Z,5.0,7.0,3.0,msa,3.0,,,,,,,,,,,,,,,,,,,,,
691290f8a9d2ff4090233076,691290f8a9d2ff4090233076,2026-01-28T05:43:48.175Z,,Survey,40.0,40_non-creaky.wav,,42.png,,,,,,,,,Wireless Jabra Headphones,2026-01-28T05:43:48.175Z,7.0,7.0,7.0,dialect,1.0,,,,,,,,,,,,,,,,,,,,,
691290f8a9d2ff4090233076,691290f8a9d2ff4090233076,2026-01-28T05:43:58.496Z,,Survey,139.0,139_non-creaky.wav,,177.png,,,,,,,,,Wireless Jabra Headphones,2026-01-28T05:43:58.496Z,7.0,7.0,7.0,msa,7.0,,,,,,,,,,,,,,,,,,,,,
691290f8a9d2ff4090233076,691290f8a9d2ff4090233076,2026-01-28T05:44:07.661Z,,Survey,96.0,96_non-creaky.wav,,109.png,,,,,,,,,Wireless Jabra Headphones,2026-01-28T05:44:07.661Z,7.0,7.0,7.0,both,7.0,,,,,,,,,,,,,,,,,,,,,
611b00c6f6cc82766cd07c16,611b00c6f6cc82766cd07c16,2026-01-28T05:44:12.375Z,,Survey,109.0,109_non-creaky.wav,,131.png,,,,,,,,,Wired Over-ear Headphones.,2026-01-28T05:44:12.375Z,7.0,7.0,6.0,msa,3.0,,,,,,,,,,,,,,,,,,,,,
68d4239be163cb15b16606a6,68d4239be163cb15b16606a6,2026-01-28T05:44:14.250Z,,Survey,38.0,38_non-creaky.wav,,40.png,,,,,,,,,Wired Headset,2026-01-28T05:44:14.250Z,5.0,7.0,6.0,msa,6.0,,,,,,,,,,,,,,,,,,,,,
691290f8a9d2ff4090233076,691290f8a9d2ff4090233076,2026-01-28T05:44:20.519Z,,Survey,18.0,18_non-creaky.wav,,18.png,,,,,,,,,Wireless Jabra Headphones,2026-01-28T05:44:20.519Z,7.0,7.0,1.0,msa,7.0,,,,,,,,,,,,,,,,,,,,,
691290f8a9d2ff4090233076,691290f8a9d2ff4090233076,2026-01-28T05:44:27.801Z,,Survey,220.0,220_creaky.wav,,84.png,,,,,,,,,Wireless Jabra Headphones,2026-01-28T05:44:27.801Z,7.0,7.0,7.0,msa,7.0,,,,,,,,,,,,,,,,,,,,,
68d4239be163cb15b16606a6,68d4239be163cb15b16606a6,2026-01-28T05:44:27.047Z,,Survey,92.0,92_non-creaky.wav,,101.png,,,,,,,,,Wired Headset,2026-01-28T05:44:27.047Z,7.0,7.0,7.0,both,3.0,,,,,,,,,,,,,,,,,,,,,
68c03814183fb278ae8ac1c9,68c03814183fb278ae8ac1c9,2026-01-28T05:44:37.926Z,,Survey,8.0,8_non-creaky.wav,,6.png,,,,,,,,,Baseus Bowie E20,2026-01-28T05:44:37.926Z,4.0,5.0,5.0,dialect,4.0,,,,,,,,,,,,,,,,,,,,,
691290f8a9d2ff4090233076,691290f8a9d2ff4090233076,2026-01-28T05:44:45.268Z,,Survey,101.0,101_non-creaky.wav,,118.png,,,,,,,,,Wireless Jabra Headphones,2026-01-28T05:44:45.268Z,7.0,7.0,1.0,both,7.0,,,,,,,,,,,,,,,,,,,,,
5c1d19c810677f0001d9d56c,5c1d19c810677f0001d9d56c,2026-01-28T05:44:43.951Z,,Survey,34.0,34_non-creaky.wav,,34.png,,,,,,,,,JBL Tune 720BT,2026-01-28T05:44:43.951Z,7.0,7.0,6.0,msa,5.0,,,,,,,,,,,,,,,,,,,,,
611b00c6f6cc82766cd07c16,611b00c6f6cc82766cd07c16,2026-01-28T05:44:53.176Z,,Survey,108.0,108_non-creaky.wav,,129.png,,,,,,,,,Wired Over-ear Headphones.,2026-01-28T05:44:53.176Z,7.0,7.0,7.0,msa,6.0,,,,,,,,,,,,,,,,,,,,,
68d4239be163cb15b16606a6,68d4239be163cb15b16606a6,2026-01-28T05:44:51.588Z,,Survey,117.0,117_non-creaky.wav,,146.png,,,,,,,,,Wired Headset,2026-01-28T05:44:51.588Z,7.0,7.0,7.0,both,7.0,,,,,,,,,,,,,,,,,,,,,
691290f8a9d2ff4090233076,691290f8a9d2ff4090233076,2026-01-28T05:44:54.102Z,,Survey,20.0,20_non-creaky.wav,,20.png,,,,,,,,,Wireless Jabra Headphones,2026-01-28T05:44:54.102Z,1.0,,4.0,dialect,1.0,,,,,,,,,,,,,,,,,,,,,
68d4239be163cb15b16606a6,68d4239be163cb15b16606a6,2026-01-28T05:45:00.642Z,,Survey,143.0,143_non-creaky.wav,,181.png,,,,,,,,,Wired Headset,2026-01-28T05:45:00.642Z,7.0,7.0,7.0,both,7.0,,,,,,,,,,,,,,,,,,,,,
691290f8a9d2ff4090233076,691290f8a9d2ff4090233076,2026-01-28T05:45:02.806Z,,Survey,135.0,135_non-creaky.wav,,168.png,,,,,,,,,Wireless Jabra Headphones,2026-01-28T05:45:02.806Z,7.0,7.0,7.0,both,7.0,,,,,,,,,,,,,,,,,,,,,
5c1d19c810677f0001d9d56c,5c1d19c810677f0001d9d56c,2026-01-28T05:45:04.943Z,,Survey,35.0,35_non-creaky.wav,,34.png,,,,,,,,,JBL Tune 720BT,2026-01-28T05:45:04.943Z,6.0,7.0,6.0,msa,6.0,,,,,,,,,,,,,,,,,,,,,
691290f8a9d2ff4090233076,691290f8a9d2ff4090233076,2026-01-28T05:45:11.131Z,,Survey,100.0,100_non-creaky.wav,,117.png,,,,,,,,,Wireless Jabra Headphones,2026-01-28T05:45:11.131Z,7.0,7.0,7.0,msa,7.0,,,,,,,,,,,,,,,,,,,,,
68d4239be163cb15b16606a6,68d4239be163cb15b16606a6,2026-01-28T05:45:12.685Z,,Survey,104.0,104_non-creaky.wav,,121.png,,,,,,,,,Wired Headset,2026-01-28T05:45:12.685Z,7.0,7.0,7.0,both,6.0,,,,,,,,,,,,,,,,,,,,,
5c1d19c810677f0001d9d56c,5c1d19c810677f0001d9d56c,2026-01-28T05:45:15.768Z,,Survey,218.0,218_creaky.wav,,82.png,,,,,,,,,JBL Tune 720BT,2026-01-28T05:45:15.768Z,5.0,7.0,5.0,msa,6.0,,,,,,,,,,,,,,,,,,,,,
611b00c6f6cc82766cd07c16,611b00c6f6cc82766cd07c16,2026-01-28T05:45:18.220Z,,Survey,2.0,2_non-creaky.wav,,1.png,,,,,,,,,Wired Over-ear Headphones.,2026-01-28T05:45:18.220Z,6.0,6.0,2.0,dialect,2.0,,,,,,,,,,,,,,,,,,,,,
691290f8a9d2ff4090233076,691290f8a9d2ff4090233076,2026-01-28T05:45:23.480Z,,Survey,162.0,162_creaky.wav,,18.png,,,,,,,,,Wireless Jabra Headphones,2026-01-28T05:45:23.480Z,7.0,7.0,2.0,msa,7.0,,,,,,,,,,,,,,,,,,,,,
68d4239be163cb15b16606a6,68d4239be163cb15b16606a6,2026-01-28T05:45:25.613Z,,Survey,101.0,101_non-creaky.wav,,118.png,,,,,,,,,Wired Headset,2026-01-28T05:45:25.613Z,7.0,7.0,7.0,both,6.0,,,,,,,,,,,,,,,,,,,,,
5c1d19c810677f0001d9d56c,5c1d19c810677f0001d9d56c,2026-01-28T05:45:29.149Z,,Survey,264.0,264_creaky.wav,,149.png,,,,,,,,,JBL Tune 720BT,2026-01-28T05:45:29.149Z,5.0,6.0,6.0,msa,5.0,,,,,,,,,,,,,,,,,,,,,
68c03814183fb278ae8ac1c9,68c03814183fb278ae8ac1c9,2026-01-28T05:45:27.577Z,,Survey,27.0,27_non-creaky.wav,,26.png,,,,,,,,,Baseus Bowie E20,2026-01-28T05:45:27.577Z,1.0,1.0,1.0,dialect,6.0,,,,,,,,,,,,,,,,,,,,,
691290f8a9d2ff4090233076,691290f8a9d2ff4090233076,2026-01-28T05:45:32.484Z,,Survey,274.0,274_creaky.wav,,162.png,,,,,,,,,Wireless Jabra Headphones,2026-01-28T05:45:32.484Z,7.0,7.0,7.0,msa,7.0,,,,,,,,,,,,,,,,,,,,,
68d4239be163cb15b16606a6,68d4239be163cb15b16606a6,2026-01-28T05:45:39.923Z,,Survey,134.0,134_non-creaky.wav,,167.png,,,,,,,,,Wired Headset,2026-01-28T05:45:39.923Z,7.0,7.0,7.0,msa,2.0,,,,,,,,,,,,,,,,,,,,,
691290f8a9d2ff4090233076,691290f8a9d2ff4090233076,2026-01-28T05:45:41.777Z,,Survey,175.0,175_creaky.wav,,30.png,,,,,,,,,Wireless Jabra Headphones,2026-01-28T05:45:41.777Z,1.0,,4.0,dialect,1.0,,,,,,,,,,,,,,,,,,,,,
5c1d19c810677f0001d9d56c,5c1d19c810677f0001d9d56c,2026-01-28T05:45:48.301Z,,Survey,163.0,163_creaky.wav,,18.png,,,,,,,,,JBL Tune 720BT,2026-01-28T05:45:48.301Z,2.0,2.0,1.0,dialect,4.0,,,,,,,,,,,,,,,,,,,,,
611b00c6f6cc82766cd07c16,611b00c6f6cc82766cd07c16,2026-01-28T05:45:53.481Z,,Survey,198.0,198_creaky.wav,,57.png,,,,,,,,,Wired Over-ear Headphones.,2026-01-28T05:45:53.481Z,7.0,7.0,7.0,both,4.0,,,,,,,,,,,,,,,,,,,,,
691290f8a9d2ff4090233076,691290f8a9d2ff4090233076,2026-01-28T05:45:51.022Z,,Survey,90.0,90_non-creaky.wav,,99.png,,,,,,,,,Wireless Jabra Headphones,2026-01-28T05:45:51.022Z,7.0,7.0,7.0,msa,7.0,,,,,,,,,,,,,,,,,,,,,
68d4239be163cb15b16606a6,68d4239be163cb15b16606a6,2026-01-28T05:45:52.431Z,,Survey,199.0,199_creaky.wav,,60.png,,,,,,,,,Wired Headset,2026-01-28T05:45:52.431Z,5.0,7.0,7.0,msa,5.0,,,,,,,,,,,,,,,,,,,,,
5c1d19c810677f0001d9d56c,5c1d19c810677f0001d9d56c,2026-01-28T05:46:01.788Z,,Survey,80.0,80_non-creaky.wav,,80.png,,,,,,,,,JBL Tune 720BT,2026-01-28T05:46:01.788Z,5.0,6.0,6.0,msa,5.0,,,,,,,,,,,,,,,,,,,,,
691290f8a9d2ff4090233076,691290f8a9d2ff4090233076,2026-01-28T05:45:59.573Z,,Survey,246.0,246_creaky.wav,,119.png,,,,,,,,,Wireless Jabra Headphones,2026-01-28T05:45:59.573Z,7.0,7.0,7.0,both,7.0,,,,,,,,,,,,,,,,,,,,,
691290f8a9d2ff4090233076,691290f8a9d2ff4090233076,2026-01-28T05:46:09.118Z,,Survey,41.0,41_non-creaky.wav,,42.png,,,,,,,,,Wireless Jabra Headphones,2026-01-28T05:46:09.118Z,7.0,7.0,7.0,dialect,1.0,,,,,,,,,,,,,,,,,,,,,
5c1d19c810677f0001d9d56c,5c1d19c810677f0001d9d56c,2026-01-28T05:46:11.794Z,,Survey,191.0,191_creaky.wav,,50.png,,,,,,,,,JBL Tune 720BT,2026-01-28T05:46:11.794Z,5.0,6.0,6.0,both,5.0,,,,,,,,,,,,,,,,,,,,,
691290f8a9d2ff4090233076,691290f8a9d2ff4090233076,2026-01-28T05:46:18.663Z,,Survey,208.0,208_creaky.wav,,70.png,,,,,,,,,Wireless Jabra Headphones,2026-01-28T05:46:18.663Z,7.0,7.0,7.0,msa,7.0,,,,,,,,,,,,,,,,,,,,,
68d4239be163cb15b16606a6,68d4239be163cb15b16606a6,2026-01-28T05:46:20.099Z,,Survey,79.0,79_non-creaky.wav,,87.png,,,,,,,,,Wired Headset,2026-01-28T05:46:20.099Z,1.0,,1.0,msa,1.0,,,,,,,,,,,,,,,,,,,,,
5c1d19c810677f0001d9d56c,5c1d19c810677f0001d9d56c,2026-01-28T05:46:21.065Z,,Survey,215.0,215_creaky.wav,,74.png,,,,,,,,,JBL Tune 720BT,2026-01-28T05:46:21.065Z,5.0,6.0,5.0,both,5.0,,,,,,,,,,,,,,,,,,,,,
611b00c6f6cc82766cd07c16,611b00c6f6cc82766cd07c16,2026-01-28T05:46:24.564Z,,Survey,37.0,37_non-creaky.wav,,36.png,,,,,,,,,Wired Over-ear Headphones.,2026-01-28T05:46:24.564Z,5.0,5.0,6.0,dialect,3.0,,,,,,,,,,,,,,,,,,,,,
691290f8a9d2ff4090233076,691290f8a9d2ff4090233076,2026-01-28T05:46:27.690Z,,Survey,251.0,251_creaky.wav,,127.png,,,,,,,,,Wireless Jabra Headphones,2026-01-28T05:46:27.690Z,7.0,7.0,7.0,both,7.0,,,,,,,,,,,,,,,,,,,,,
5c1d19c810677f0001d9d56c,5c1d19c810677f0001d9d56c,2026-01-28T05:46:37.396Z,,Survey,39.0,39_non-creaky.wav,,40.png,,,,,,,,,JBL Tune 720BT,2026-01-28T05:46:37.396Z,6.0,7.0,5.0,both,5.0,,,,,,,,,,,,,,,,,,,,,
68d4239be163cb15b16606a6,68d4239be163cb15b16606a6,2026-01-28T05:46:37.114Z,,Survey,144.0,144_non-creaky.wav,,182.png,,,,,,,,,Wired Headset,2026-01-28T05:46:37.114Z,7.0,7.0,5.0,both,6.0,,,,,,,,,,,,,,,,,,,,,
691290f8a9d2ff4090233076,691290f8a9d2ff4090233076,2026-01-28T05:46:37.953Z,,Survey,78.0,78_non-creaky.wav,,86.png,,,,,,,,,Wireless Jabra Headphones,2026-01-28T05:46:37.953Z,7.0,7.0,7.0,msa,7.0,,,,,,,,,,,,,,,,,,,,,
691290f8a9d2ff4090233076,691290f8a9d2ff4090233076,2026-01-28T05:46:45.800Z,,Survey,273.0,273_creaky.wav,,160.png,,,,,,,,,Wireless Jabra Headphones,2026-01-28T05:46:45.800Z,7.0,7.0,7.0,msa,7.0,,,,,,,,,,,,,,,,,,,,,
68d4239be163cb15b16606a6,68d4239be163cb15b16606a6,2026-01-28T05:46:48.936Z,,Survey,147.0,147_creaky.wav,,3.png,,,,,,,,,Wired Headset,2026-01-28T05:46:48.936Z,7.0,7.0,7.0,both,6.0,,,,,,,,,,,,,,,,,,,,,
691290f8a9d2ff4090233076,691290f8a9d2ff4090233076,2026-01-28T05:46:53.325Z,,Survey,110.0,110_non-creaky.wav,,135.png,,,,,,,,,Wireless Jabra Headphones,2026-01-28T05:46:53.325Z,7.0,7.0,7.0,both,7.0,,,,,,,,,,,,,,,,,,,,,
68d4239be163cb15b16606a6,68d4239be163cb15b16606a6,2026-01-28T05:46:59.914Z,,Survey,235.0,235_creaky.wav,,101.png,,,,,,,,,Wired Headset,2026-01-28T05:46:59.914Z,7.0,7.0,7.0,both,1.0,,,,,,,,,,,,,,,,,,,,,
5c1d19c810677f0001d9d56c,5c1d19c810677f0001d9d56c,2026-01-28T05:47:01.890Z,,Survey,79.0,79_non-creaky.wav,,87.png,,,,,,,,,JBL Tune 720BT,2026-01-28T05:47:01.890Z,5.0,6.0,4.0,dialect,4.0,,,,,,,,,,,,,,,,,,,,,
691290f8a9d2ff4090233076,691290f8a9d2ff4090233076,2026-01-28T05:47:02.369Z,,Survey,4.0,4_non-creaky.wav,,4.png,,,,,,,,,Wireless Jabra Headphones,2026-01-28T05:47:02.369Z,7.0,7.0,7.0,msa,7.0,,,,,,,,,,,,,,,,,,,,,
611b00c6f6cc82766cd07c16,611b00c6f6cc82766cd07c16,2026-01-28T05:47:07.025Z,,Survey,185.0,185_creaky.wav,,42.png,,,,,,,,,Wired Over-ear Headphones.,2026-01-28T05:47:07.025Z,1.0,1.0,1.0,dialect,1.0,,,,,,,,,,,,,,,,,,,,,
691290f8a9d2ff4090233076,691290f8a9d2ff4090233076,2026-01-28T05:47:11.634Z,,Survey,120.0,120_non-creaky.wav,,149.png,,,,,,,,,Wireless Jabra Headphones,2026-01-28T05:47:11.634Z,7.0,7.0,7.0,msa,7.0,,,,,,,,,,,,,,,,,,,,,
68d4239be163cb15b16606a6,68d4239be163cb15b16606a6,2026-01-28T05:47:15.441Z,,Survey,164.0,164_creaky.wav,,20.png,,,,,,,,,Wired Headset,2026-01-28T05:47:15.441Z,1.0,,1.0,msa,1.0,,,,,,,,,,,,,,,,,,,,,
691290f8a9d2ff4090233076,691290f8a9d2ff4090233076,2026-01-28T05:47:21.009Z,,Survey,48.0,48_non-creaky.wav,,51.png,,,,,,,,,Wireless Jabra Headphones,2026-01-28T05:47:21.009Z,7.0,7.0,7.0,both,7.0,,,,,,,,,,,,,,,,,,,,,
68d4239be163cb15b16606a6,68d4239be163cb15b16606a6,2026-01-28T05:47:34.502Z,,Survey,109.0,109_non-creaky.wav,,131.png,,,,,,,,,Wired Headset,2026-01-28T05:47:34.502Z,7.0,7.0,7.0,both,6.0,,,,,,,,,,,,,,,,,,,,,
611b00c6f6cc82766cd07c16,611b00c6f6cc82766cd07c16,2026-01-28T05:47:38.759Z,,Survey,165.0,165_creaky.wav,,20.png,,,,,,,,,Wired Over-ear Headphones.,2026-01-28T05:47:38.759Z,1.0,1.0,1.0,dialect,1.0,,,,,,,,,,,,,,,,,,,,,
5c1d19c810677f0001d9d56c,5c1d19c810677f0001d9d56c,2026-01-28T05:47:39.708Z,,Survey,181.0,181_creaky.wav,,36.png,,,,,,,,,JBL Tune 720BT,2026-01-28T05:47:39.708Z,6.0,6.0,6.0,both,6.0,,,,,,,,,,,,,,,,,,,,,
691290f8a9d2ff4090233076,691290f8a9d2ff4090233076,2026-01-28T05:47:44.498Z,,Survey,236.0,236_creaky.wav,,101.png,,,,,,,,,Wireless Jabra Headphones,2026-01-28T05:47:44.498Z,3.0,4.0,7.0,dialect,1.0,,,,,,,,,,,,,,,,,,,,,
5c1d19c810677f0001d9d56c,5c1d19c810677f0001d9d56c,2026-01-28T05:47:50.283Z,,Survey,47.0,47_non-creaky.wav,,50.png,,,,,,,,,JBL Tune 720BT,2026-01-28T05:47:50.283Z,6.0,6.0,6.0,both,6.0,,,,,,,,,,,,,,,,,,,,,
691290f8a9d2ff4090233076,691290f8a9d2ff4090233076,2026-01-28T05:47:52.150Z,,Survey,63.0,63_non-creaky.wav,,69.png,,,,,,,,,Wireless Jabra Headphones,2026-01-28T05:47:52.150Z,7.0,7.0,7.0,msa,7.0,,,,,,,,,,,,,,,,,,,,,
68d4239be163cb15b16606a6,68d4239be163cb15b16606a6,2026-01-28T05:47:53.706Z,,Survey,245.0,245_creaky.wav,,118.png,,,,,,,,,Wired Headset,2026-01-28T05:47:53.706Z,7.0,7.0,1.0,both,5.0,,,,,,,,,,,,,,,,,,,,,
691290f8a9d2ff4090233076,691290f8a9d2ff4090233076,2026-01-28T05:48:00.855Z,,Survey,232.0,232_creaky.wav,,96.png,,,,,,,,,Wireless Jabra Headphones,2026-01-28T05:48:00.855Z,7.0,7.0,7.0,both,7.0,,,,,,,,,,,,,,,,,,,,,
611b00c6f6cc82766cd07c16,611b00c6f6cc82766cd07c16,2026-01-28T05:48:03.373Z,,Survey,58.0,58_non-creaky.wav,,63.png,,,,,,,,,Wired Over-ear Headphones.,2026-01-28T05:48:03.373Z,7.0,7.0,7.0,both,5.0,,,,,,,,,,,,,,,,,,,,,
5c1d19c810677f0001d9d56c,5c1d19c810677f0001d9d56c,2026-01-28T05:48:03.631Z,,Survey,17.0,17_non-creaky.wav,,16.png,,,,,,,,,JBL Tune 720BT,2026-01-28T05:48:03.631Z,6.0,6.0,6.0,dialect,5.0,,,,,,,,,,,,,,,,,,,,,
691290f8a9d2ff4090233076,691290f8a9d2ff4090233076,2026-01-28T05:48:08.232Z,,Survey,247.0,247_creaky.wav,,120.png,,,,,,,,,Wireless Jabra Headphones,2026-01-28T05:48:08.232Z,7.0,7.0,7.0,both,7.0,,,,,,,,,,,,,,,,,,,,,
68d4239be163cb15b16606a6,68d4239be163cb15b16606a6,2026-01-28T05:48:08.485Z,,Survey,187.0,187_creaky.wav,,44.png,,,,,,,,,Wired Headset,2026-01-28T05:48:08.485Z,7.0,7.0,7.0,dialect,6.0,,,,,,,,,,,,,,,,,,,,,
5c1d19c810677f0001d9d56c,5c1d19c810677f0001d9d56c,2026-01-28T05:48:12.347Z,,Survey,149.0,149_creaky.wav,,4.png,,,,,,,,,JBL Tune 720BT,2026-01-28T05:48:12.347Z,6.0,6.0,5.0,both,5.0,,,,,,,,,,,,,,,,,,,,,
691290f8a9d2ff4090233076,691290f8a9d2ff4090233076,2026-01-28T05:48:16.145Z,,Survey,30.0,30_non-creaky.wav,,30.png,,,,,,,,,Wireless Jabra Headphones,2026-01-28T05:48:16.145Z,1.0,,4.0,dialect,1.0,,,,,,,,,,,,,,,,,,,,,
68d4239be163cb15b16606a6,68d4239be163cb15b16606a6,2026-01-28T05:48:19.653Z,,Survey,119.0,119_non-creaky.wav,,148.png,,,,,,,,,Wired Headset,2026-01-28T05:48:19.653Z,7.0,7.0,7.0,both,6.0,,,,,,,,,,,,,,,,,,,,,
611b00c6f6cc82766cd07c16,611b00c6f6cc82766cd07c16,2026-01-28T05:48:21.530Z,,Survey,172.0,172_creaky.wav,,28.png,,,,,,,,,Wired Over-ear Headphones.,2026-01-28T05:48:21.530Z,7.0,7.0,7.0,msa,7.0,,,,,,,,,,,,,,,,,,,,,
5c1d19c810677f0001d9d56c,5c1d19c810677f0001d9d56c,2026-01-28T05:48:23.923Z,,Survey,150.0,150_creaky.wav,,6.png,,,,,,,,,JBL Tune 720BT,2026-01-28T05:48:23.923Z,5.0,7.0,5.0,dialect,4.0,,,,,,,,,,,,,,,,,,,,,
691290f8a9d2ff4090233076,691290f8a9d2ff4090233076,2026-01-28T05:48:26.465Z,,Survey,197.0,197_creaky.wav,,56.png,,,,,,,,,Wireless Jabra Headphones,2026-01-28T05:48:26.465Z,7.0,7.0,7.0,msa,7.0,,,,,,,,,,,,,,,,,,,,,
691290f8a9d2ff4090233076,691290f8a9d2ff4090233076,2026-01-28T05:48:34.322Z,,Survey,250.0,250_creaky.wav,,125.png,,,,,,,,,Wireless Jabra Headphones,2026-01-28T05:48:34.322Z,7.0,7.0,7.0,both,7.0,,,,,,,,,,,,,,,,,,,,,
5c1d19c810677f0001d9d56c,5c1d19c810677f0001d9d56c,2026-01-28T05:48:35.782Z,,Survey,9.0,9_non-creaky.wav,,9.png,,,,,,,,,JBL Tune 720BT,2026-01-28T05:48:35.782Z,5.0,6.0,6.0,both,5.0,,,,,,,,,,,,,,,,,,,,,
691290f8a9d2ff4090233076,691290f8a9d2ff4090233076,2026-01-28T05:48:42.815Z,,Survey,45.0,45_non-creaky.wav,,47.png,,,,,,,,,Wireless Jabra Headphones,2026-01-28T05:48:42.815Z,7.0,7.0,7.0,both,7.0,,,,,,,,,,,,,,,,,,,,,
5c1d19c810677f0001d9d56c,5c1d19c810677f0001d9d56c,2026-01-28T05:48:44.032Z,,Survey,207.0,207_creaky.wav,,69.png,,,,,,,,,JBL Tune 720BT,2026-01-28T05:48:44.032Z,6.0,6.0,5.0,both,5.0,,,,,,,,,,,,,,,,,,,,,
611b00c6f6cc82766cd07c16,611b00c6f6cc82766cd07c16,2026-01-28T05:48:47.543Z,,Survey,154.0,154_creaky.wav,,10.png,,,,,,,,,Wired Over-ear Headphones.,2026-01-28T05:48:47.543Z,7.0,7.0,5.0,msa,4.0,,,,,,,,,,,,,,,,,,,,,
68c03814183fb278ae8ac1c9,68c03814183fb278ae8ac1c9,2026-01-28T05:48:46.541Z,,Survey,223.0,223_creaky.wav,,87.png,,,,,,,,,Baseus Bowie E20,2026-01-28T05:48:46.541Z,1.0,1.0,1.0,msa,5.0,,,,,,,,,,,,,,,,,,,,,
691290f8a9d2ff4090233076,691290f8a9d2ff4090233076,2026-01-28T05:48:51.357Z,,Survey,29.0,29_non-creaky.wav,,28.png,,,,,,,,,Wireless Jabra Headphones,2026-01-28T05:48:51.357Z,7.0,7.0,7.0,dialect,2.0,,,,,,,,,,,,,,,,,,,,,
5c1d19c810677f0001d9d56c,5c1d19c810677f0001d9d56c,2026-01-28T05:48:54.909Z,,Survey,263.0,263_creaky.wav,,148.png,,,,,,,,,JBL Tune 720BT,2026-01-28T05:48:54.909Z,6.0,6.0,5.0,both,5.0,,,,,,,,,,,,,,,,,,,,,
691290f8a9d2ff4090233076,691290f8a9d2ff4090233076,2026-01-28T05:48:58.307Z,,Survey,248.0,248_creaky.wav,,121.png,,,,,,,,,Wireless Jabra Headphones,2026-01-28T05:48:58.307Z,7.0,7.0,7.0,both,7.0,,,,,,,,,,,,,,,,,,,,,
5c1d19c810677f0001d9d56c,5c1d19c810677f0001d9d56c,2026-01-28T05:49:04.707Z,,Survey,193.0,193_creaky.wav,,52.png,,,,,,,,,JBL Tune 720BT,2026-01-28T05:49:04.707Z,5.0,6.0,6.0,both,6.0,,,,,,,,,,,,,,,,,,,,,
68d4239be163cb15b16606a6,68d4239be163cb15b16606a6,2026-01-28T05:49:06.811Z,,Survey,136.0,136_non-creaky.wav,,169.png,,,,,,,,,Wired Headset,2026-01-28T05:49:06.811Z,4.0,6.0,3.0,msa,5.0,,,,,,,,,,,,,,,,,,,,,
691290f8a9d2ff4090233076,691290f8a9d2ff4090233076,2026-01-28T05:49:09.565Z,,Survey,200.0,200_creaky.wav,,61.png,,,,,,,,,Wireless Jabra Headphones,2026-01-28T05:49:09.565Z,7.0,7.0,7.0,dialect,3.0,,,,,,,,,,,,,,,,,,,,,
5c1d19c810677f0001d9d56c,5c1d19c810677f0001d9d56c,2026-01-28T05:49:12.871Z,,Survey,268.0,268_creaky.wav,,155.png,,,,,,,,,JBL Tune 720BT,2026-01-28T05:49:12.871Z,6.0,6.0,6.0,both,6.0,,,,,,,,,,,,,,,,,,,,,
691290f8a9d2ff4090233076,691290f8a9d2ff4090233076,2026-01-28T05:49:17.356Z,,Survey,88.0,88_non-creaky.wav,,96.png,,,,,,,,,Wireless Jabra Headphones,2026-01-28T05:49:17.356Z,7.0,7.0,7.0,both,7.0,,,,,,,,,,,,,,,,,,,,,
5c1d19c810677f0001d9d56c,5c1d19c810677f0001d9d56c,2026-01-28T05:49:20.903Z,,Survey,252.0,252_creaky.wav,,129.png,,,,,,,,,JBL Tune 720BT,2026-01-28T05:49:20.903Z,5.0,6.0,6.0,both,5.0,,,,,,,,,,,,,,,,,,,,,
68c03814183fb278ae8ac1c9,68c03814183fb278ae8ac1c9,2026-01-28T05:49:20.905Z,,Survey,202.0,202_creaky.wav,,63.png,,,,,,,,,Baseus Bowie E20,2026-01-28T05:49:20.905Z,6.0,7.0,7.0,both,7.0,,,,,,,,,,,,,,,,,,,,,
611b00c6f6cc82766cd07c16,611b00c6f6cc82766cd07c16,2026-01-28T05:49:32.479Z,,Survey,199.0,199_creaky.wav,,60.png,,,,,,,,,Wired Over-ear Headphones.,2026-01-28T05:49:32.479Z,6.0,6.0,7.0,msa,3.0,,,,,,,,,,,,,,,,,,,,,
691290f8a9d2ff4090233076,691290f8a9d2ff4090233076,2026-01-28T05:49:31.347Z,,Survey,27.0,27_non-creaky.wav,,26.png,,,,,,,,,Wireless Jabra Headphones,2026-01-28T05:49:31.347Z,2.0,,4.0,dialect,1.0,,,,,,,,,,,,,,,,,,,,,
5c1d19c810677f0001d9d56c,5c1d19c810677f0001d9d56c,2026-01-28T05:49:31.204Z,,Survey,164.0,164_creaky.wav,,20.png,,,,,,,,,JBL Tune 720BT,2026-01-28T05:49:31.204Z,6.0,6.0,5.0,dialect,3.0,,,,,,,,,,,,,,,,,,,,,
691290f8a9d2ff4090233076,691290f8a9d2ff4090233076,2026-01-28T05:49:39.073Z,,Survey,258.0,258_creaky.wav,,142.png,,,,,,,,,Wireless Jabra Headphones,2026-01-28T05:49:39.073Z,7.0,7.0,7.0,both,7.0,,,,,,,,,,,,,,,,,,,,,
5c1d19c810677f0001d9d56c,5c1d19c810677f0001d9d56c,2026-01-28T05:49:39.902Z,,Survey,144.0,144_non-creaky.wav,,182.png,,,,,,,,,JBL Tune 720BT,2026-01-28T05:49:39.902Z,6.0,6.0,6.0,both,5.0,,,,,,,,,,,,,,,,,,,,,
5c1d19c810677f0001d9d56c,5c1d19c810677f0001d9d56c,2026-01-28T05:49:50.473Z,,Survey,97.0,97_non-creaky.wav,,112.png,,,,,,,,,JBL Tune 720BT,2026-01-28T05:49:50.473Z,5.0,6.0,5.0,msa,5.0,,,,,,,,,,,,,,,,,,,,,
68c03814183fb278ae8ac1c9,68c03814183fb278ae8ac1c9,2026-01-28T05:49:52.960Z,,Survey,25.0,25_non-creaky.wav,,25.png,,,,,,,,,Baseus Bowie E20,2026-01-28T05:49:52.960Z,4.0,7.0,1.0,msa,7.0,,,,,,,,,,,,,,,,,,,,,
691290f8a9d2ff4090233076,691290f8a9d2ff4090233076,2026-01-28T05:49:54.348Z,,Survey,223.0,223_creaky.wav,,87.png,,,,,,,,,Wireless Jabra Headphones,2026-01-28T05:49:54.348Z,1.0,,4.0,msa,7.0,,,,,,,,,,,,,,,,,,,,,
5c1d19c810677f0001d9d56c,5c1d19c810677f0001d9d56c,2026-01-28T05:49:58.205Z,,Survey,64.0,64_non-creaky.wav,,70.png,,,,,,,,,JBL Tune 720BT,2026-01-28T05:49:58.205Z,6.0,6.0,6.0,both,4.0,,,,,,,,,,,,,,,,,,,,,
68d4239be163cb15b16606a6,68d4239be163cb15b16606a6,2026-01-28T05:49:57.771Z,,Survey,194.0,194_creaky.wav,,53.png,,,,,,,,,Wired Headset,2026-01-28T05:49:57.771Z,5.0,7.0,7.0,msa,5.0,,,,,,,,,,,,,,,,,,,,,
611b00c6f6cc82766cd07c16,611b00c6f6cc82766cd07c16,2026-01-28T05:50:00.936Z,,Survey,275.0,275_creaky.wav,,163.png,,,,,,,,,Wired Over-ear Headphones.,2026-01-28T05:50:00.936Z,7.0,7.0,7.0,both,5.0,,,,,,,,,,,,,,,,,,,,,
691290f8a9d2ff4090233076,691290f8a9d2ff4090233076,2026-01-28T05:50:09.719Z,,Survey,76.0,76_non-creaky.wav,,84.png,,,,,,,,,Wireless Jabra Headphones,2026-01-28T05:50:09.719Z,7.0,7.0,7.0,msa,7.0,,,,,,,,,,,,,,,,,,,,,
5c1d19c810677f0001d9d56c,5c1d19c810677f0001d9d56c,2026-01-28T05:50:17.202Z,,Survey,22.0,22_non-creaky.wav,,22.png,,,,,,,,,JBL Tune 720BT,2026-01-28T05:50:17.202Z,6.0,6.0,6.0,dialect,5.0,,,,,,,,,,,,,,,,,,,,,
68d4239be163cb15b16606a6,68d4239be163cb15b16606a6,2026-01-28T05:50:16.993Z,,Survey,197.0,197_creaky.wav,,56.png,,,,,,,,,Wired Headset,2026-01-28T05:50:16.993Z,6.0,7.0,7.0,msa,6.0,,,,,,,,,,,,,,,,,,,,,
68c03814183fb278ae8ac1c9,68c03814183fb278ae8ac1c9,2026-01-28T05:50:17.672Z,,Survey,110.0,110_non-creaky.wav,,135.png,,,,,,,,,Baseus Bowie E20,2026-01-28T05:50:17.672Z,7.0,7.0,7.0,both,7.0,,,,,,,,,,,,,,,,,,,,,
611b00c6f6cc82766cd07c16,611b00c6f6cc82766cd07c16,2026-01-28T05:50:22.339Z,,Survey,99.0,99_non-creaky.wav,,115.png,,,,,,,,,Wired Over-ear Headphones.,2026-01-28T05:50:22.339Z,6.0,7.0,5.0,msa,3.0,,,,,,,,,,,,,,,,,,,,,
691290f8a9d2ff4090233076,691290f8a9d2ff4090233076,2026-01-28T05:50:21.720Z,,Survey,80.0,80_non-creaky.wav,,80.png,,,,,,,,,Wireless Jabra Headphones,2026-01-28T05:50:21.720Z,7.0,7.0,7.0,dialect,2.0,,,,,,,,,,,,,,,,,,,,,
5c1d19c810677f0001d9d56c,5c1d19c810677f0001d9d56c,2026-01-28T05:50:25.598Z,,Survey,197.0,197_creaky.wav,,56.png,,,,,,,,,JBL Tune 720BT,2026-01-28T05:50:25.598Z,6.0,7.0,6.0,both,6.0,,,,,,,,,,,,,,,,,,,,,
691290f8a9d2ff4090233076,691290f8a9d2ff4090233076,2026-01-28T05:50:30.868Z,,Survey,98.0,98_non-creaky.wav,,113.png,,,,,,,,,Wireless Jabra Headphones,2026-01-28T05:50:30.868Z,7.0,7.0,7.0,msa,7.0,,,,,,,,,,,,,,,,,,,,,
68d4239be163cb15b16606a6,68d4239be163cb15b16606a6,2026-01-28T05:50:33.472Z,,Survey,133.0,133_non-creaky.wav,,165.png,,,,,,,,,Wired Headset,2026-01-28T05:50:33.472Z,1.0,,1.0,msa,1.0,,,,,,,,,,,,,,,,,,,,,
5c1d19c810677f0001d9d56c,5c1d19c810677f0001d9d56c,2026-01-28T05:50:34.473Z,,Survey,146.0,146_creaky.wav,,1.png,,,,,,,,,JBL Tune 720BT,2026-01-28T05:50:34.473Z,6.0,7.0,6.0,msa,5.0,,,,,,,,,,,,,,,,,,,,,
691290f8a9d2ff4090233076,691290f8a9d2ff4090233076,2026-01-28T05:50:39.936Z,,Survey,209.0,209_creaky.wav,,72.png,,,,,,,,,Wireless Jabra Headphones,2026-01-28T05:50:39.936Z,7.0,7.0,7.0,msa,7.0,,,,,,,,,,,,,,,,,,,,,
68c03814183fb278ae8ac1c9,68c03814183fb278ae8ac1c9,2026-01-28T05:50:38.860Z,,Survey,286.0,286_creaky.wav,,180.png,,,,,,,,,Baseus Bowie E20,2026-01-28T05:50:38.860Z,7.0,7.0,6.0,both,7.0,,,,,,,,,,,,,,,,,,,,,
5c1d19c810677f0001d9d56c,5c1d19c810677f0001d9d56c,2026-01-28T05:50:41.942Z,,Survey,85.0,85_non-creaky.wav,,85.png,,,,,,,,,JBL Tune 720BT,2026-01-28T05:50:41.942Z,6.0,7.0,6.0,both,6.0,,,,,,,,,,,,,,,,,,,,,
691290f8a9d2ff4090233076,691290f8a9d2ff4090233076,2026-01-28T05:50:51.023Z,,Survey,95.0,95_non-creaky.wav,,107.png,,,,,,,,,Wireless Jabra Headphones,2026-01-28T05:50:51.023Z,7.0,7.0,7.0,both,7.0,,,,,,,,,,,,,,,,,,,,,
68d4239be163cb15b16606a6,68d4239be163cb15b16606a6,2026-01-28T05:50:55.383Z,,Survey,160.0,160_creaky.wav,,16.png,,,,,,,,,Wired Headset,2026-01-28T05:50:55.383Z,7.0,7.0,7.0,dialect,1.0,,,,,,,,,,,,,,,,,,,,,
691290f8a9d2ff4090233076,691290f8a9d2ff4090233076,2026-01-28T05:50:58.259Z,,Survey,205.0,205_creaky.wav,,67.png,,,,,,,,,Wireless Jabra Headphones,2026-01-28T05:50:58.259Z,7.0,7.0,7.0,both,7.0,,,,,,,,,,,,,,,,,,,,,
611b00c6f6cc82766cd07c16,611b00c6f6cc82766cd07c16,2026-01-28T05:51:01.286Z,,Survey,277.0,277_creaky.wav,,165.png,,,,,,,,,Wired Over-ear Headphones.,2026-01-28T05:51:01.286Z,1.0,1.0,6.0,dialect,4.0,,,,,,,,,,,,,,,,,,,,,
5c1d19c810677f0001d9d56c,5c1d19c810677f0001d9d56c,2026-01-28T05:51:03.193Z,,Survey,229.0,229_creaky.wav,,85.png,,,,,,,,,JBL Tune 720BT,2026-01-28T05:51:03.193Z,6.0,7.0,5.0,both,6.0,,,,,,,,,,,,,,,,,,,,,
68c03814183fb278ae8ac1c9,68c03814183fb278ae8ac1c9,2026-01-28T05:51:02.664Z,,Survey,200.0,200_creaky.wav,,61.png,,,,,,,,,Baseus Bowie E20,2026-01-28T05:51:02.664Z,5.0,7.0,7.0,msa,5.0,,,,,,,,,,,,,,,,,,,,,
68d4239be163cb15b16606a6,68d4239be163cb15b16606a6,2026-01-28T05:51:05.132Z,,Survey,256.0,256_creaky.wav,,139.png,,,,,,,,,Wired Headset,2026-01-28T05:51:05.132Z,7.0,7.0,7.0,both,5.0,,,,,,,,,,,,,,,,,,,,,
691290f8a9d2ff4090233076,691290f8a9d2ff4090233076,2026-01-28T05:51:07.443Z,,Survey,60.0,60_non-creaky.wav,,65.png,,,,,,,,,Wireless Jabra Headphones,2026-01-28T05:51:07.443Z,7.0,7.0,5.0,both,7.0,,,,,,,,,,,,,,,,,,,,,
5c1d19c810677f0001d9d56c,5c1d19c810677f0001d9d56c,2026-01-28T05:51:14.591Z,,Survey,121.0,121_non-creaky.wav,,150.png,,,,,,,,,JBL Tune 720BT,2026-01-28T05:51:14.591Z,6.0,7.0,5.0,dialect,5.0,,,,,,,,,,,,,,,,,,,,,
691290f8a9d2ff4090233076,691290f8a9d2ff4090233076,2026-01-28T05:51:15.154Z,,Survey,104.0,104_non-creaky.wav,,121.png,,,,,,,,,Wireless Jabra Headphones,2026-01-28T05:51:15.154Z,7.0,7.0,7.0,both,7.0,,,,,,,,,,,,,,,,,,,,,
691290f8a9d2ff4090233076,691290f8a9d2ff4090233076,2026-01-28T05:51:24.189Z,,Survey,228.0,228_creaky.wav,,84.png,,,,,,,,,Wireless Jabra Headphones,2026-01-28T05:51:24.189Z,7.0,7.0,7.0,dialect,1.0,,,,,,,,,,,,,,,,,,,,,
5c1d19c810677f0001d9d56c,5c1d19c810677f0001d9d56c,2026-01-28T05:51:26.218Z,,Survey,96.0,96_non-creaky.wav,,109.png,,,,,,,,,JBL Tune 720BT,2026-01-28T05:51:26.218Z,6.0,6.0,6.0,msa,5.0,,,,,,,,,,,,,,,,,,,,,
691290f8a9d2ff4090233076,691290f8a9d2ff4090233076,2026-01-28T05:51:31.656Z,,Survey,182.0,182_creaky.wav,,40.png,,,,,,,,,Wireless Jabra Headphones,2026-01-28T05:51:31.656Z,7.0,7.0,7.0,msa,7.0,,,,,,,,,,,,,,,,,,,,,
68d4239be163cb15b16606a6,68d4239be163cb15b16606a6,2026-01-28T05:51:32.886Z,,Survey,51.0,51_non-creaky.wav,,54.png,,,,,,,,,Wired Headset,2026-01-28T05:51:32.886Z,7.0,7.0,7.0,msa,5.0,,,,,,,,,,,,,,,,,,,,,
68c03814183fb278ae8ac1c9,68c03814183fb278ae8ac1c9,2026-01-28T05:51:35.117Z,,Survey,31.0,31_non-creaky.wav,,30.png,,,,,,,,,Baseus Bowie E20,2026-01-28T05:51:35.117Z,1.0,1.0,4.0,msa,6.0,,,,,,,,,,,,,,,,,,,,,
5c1d19c810677f0001d9d56c,5c1d19c810677f0001d9d56c,2026-01-28T05:51:38.709Z,,Survey,187.0,187_creaky.wav,,44.png,,,,,,,,,JBL Tune 720BT,2026-01-28T05:51:38.709Z,6.0,6.0,6.0,both,6.0,,,,,,,,,,,,,,,,,,,,,
691290f8a9d2ff4090233076,691290f8a9d2ff4090233076,2026-01-28T05:51:40.279Z,,Survey,198.0,198_creaky.wav,,57.png,,,,,,,,,Wireless Jabra Headphones,2026-01-28T05:51:40.279Z,7.0,7.0,7.0,msa,7.0,,,,,,,,,,,,,,,,,,,,,
5c1d19c810677f0001d9d56c,5c1d19c810677f0001d9d56c,2026-01-28T05:51:48.138Z,,Survey,286.0,286_creaky.wav,,180.png,,,,,,,,,JBL Tune 720BT,2026-01-28T05:51:48.138Z,6.0,7.0,6.0,both,4.0,,,,,,,,,,,,,,,,,,,,,
691290f8a9d2ff4090233076,691290f8a9d2ff4090233076,2026-01-28T05:51:49.743Z,,Survey,268.0,268_creaky.wav,,155.png,,,,,,,,,Wireless Jabra Headphones,2026-01-28T05:51:49.743Z,7.0,7.0,7.0,msa,7.0,,,,,,,,,,,,,,,,,,,,,
611b00c6f6cc82766cd07c16,611b00c6f6cc82766cd07c16,2026-01-28T05:51:51.814Z,,Survey,91.0,91_non-creaky.wav,,101.png,,,,,,,,,Wired Over-ear Headphones.,2026-01-28T05:51:51.814Z,6.0,6.0,6.0,msa,6.0,,,,,,,,,,,,,,,,,,,,,
68d4239be163cb15b16606a6,68d4239be163cb15b16606a6,2026-01-28T05:51:51.976Z,,Survey,5.0,5_non-creaky.wav,,4.png,,,,,,,,,Wired Headset,2026-01-28T05:51:51.976Z,7.0,7.0,5.0,dialect,5.0,,,,,,,,,,,,,,,,,,,,,
68c03814183fb278ae8ac1c9,68c03814183fb278ae8ac1c9,2026-01-28T05:51:53.098Z,,Survey,124.0,124_non-creaky.wav,,155.png,,,,,,,,,Baseus Bowie E20,2026-01-28T05:51:53.098Z,5.0,7.0,7.0,msa,7.0,,,,,,,,,,,,,,,,,,,,,
5c1d19c810677f0001d9d56c,5c1d19c810677f0001d9d56c,2026-01-28T05:51:56.361Z,,Survey,196.0,196_creaky.wav,,55.png,,,,,,,,,JBL Tune 720BT,2026-01-28T05:51:56.361Z,6.0,6.0,6.0,both,5.0,,,,,,,,,,,,,,,,,,,,,
691290f8a9d2ff4090233076,691290f8a9d2ff4090233076,2026-01-28T05:52:00.638Z,,Survey,269.0,269_creaky.wav,,156.png,,,,,,,,,Wireless Jabra Headphones,2026-01-28T05:52:00.638Z,7.0,7.0,3.0,msa,7.0,,,,,,,,,,,,,,,,,,,,,
5c1d19c810677f0001d9d56c,5c1d19c810677f0001d9d56c,2026-01-28T05:52:04.188Z,,Survey,76.0,76_non-creaky.wav,,84.png,,,,,,,,,JBL Tune 720BT,2026-01-28T05:52:04.188Z,6.0,6.0,6.0,msa,6.0,,,,,,,,,,,,,,,,,,,,,
691290f8a9d2ff4090233076,691290f8a9d2ff4090233076,2026-01-28T05:52:09.617Z,,Survey,177.0,177_creaky.wav,,32.png,,,,,,,,,Wireless Jabra Headphones,2026-01-28T05:52:09.617Z,7.0,7.0,7.0,dialect,1.0,,,,,,,,,,,,,,,,,,,,,
5c1d19c810677f0001d9d56c,5c1d19c810677f0001d9d56c,2026-01-28T05:52:11.453Z,,Survey,271.0,271_creaky.wav,,158.png,,,,,,,,,JBL Tune 720BT,2026-01-28T05:52:11.453Z,6.0,7.0,7.0,both,6.0,,,,,,,,,,,,,,,,,,,,,
68c03814183fb278ae8ac1c9,68c03814183fb278ae8ac1c9,2026-01-28T05:52:11.563Z,,Survey,148.0,148_creaky.wav,,4.png,,,,,,,,,Baseus Bowie E20,2026-01-28T05:52:11.563Z,7.0,7.0,7.0,both,6.0,,,,,,,,,,,,,,,,,,,,,
691290f8a9d2ff4090233076,691290f8a9d2ff4090233076,2026-01-28T05:52:17.512Z,,Survey,51.0,51_non-creaky.wav,,54.png,,,,,,,,,Wireless Jabra Headphones,2026-01-28T05:52:17.512Z,7.0,7.0,7.0,msa,7.0,,,,,,,,,,,,,,,,,,,,,
5c1d19c810677f0001d9d56c,5c1d19c810677f0001d9d56c,2026-01-28T05:52:21.345Z,,Survey,224.0,224_creaky.wav,,80.png,,,,,,,,,JBL Tune 720BT,2026-01-28T05:52:21.345Z,6.0,7.0,5.0,msa,4.0,,,,,,,,,,,,,,,,,,,,,
691290f8a9d2ff4090233076,691290f8a9d2ff4090233076,2026-01-28T05:52:24.189Z,,Survey,158.0,158_creaky.wav,,14.png,,,,,,,,,Wireless Jabra Headphones,2026-01-28T05:52:24.189Z,7.0,7.0,7.0,msa,7.0,,,,,,,,,,,,,,,,,,,,,
611b00c6f6cc82766cd07c16,611b00c6f6cc82766cd07c16,2026-01-28T05:52:29.340Z,,Survey,32.0,32_non-creaky.wav,,32.png,,,,,,,,,Wired Over-ear Headphones.,2026-01-28T05:52:29.340Z,5.0,6.0,6.0,msa,4.0,,,,,,,,,,,,,,,,,,,,,
68d40473576087257c6dcaf3,68d40473576087257c6dcaf3,2026-01-28T05:52:28.460Z,,Survey,283.0,283_creaky.wav,,177.png,,,,,,,,,Wired over-ear headphones,2026-01-28T05:52:28.460Z,7.0,7.0,7.0,msa,4.0,,,,,,,,,,,,,,,,,,,,,
5c1d19c810677f0001d9d56c,5c1d19c810677f0001d9d56c,2026-01-28T05:52:30.605Z,,Survey,266.0,266_creaky.wav,,151.png,,,,,,,,,JBL Tune 720BT,2026-01-28T05:52:30.605Z,5.0,6.0,6.0,both,5.0,,,,,,,,,,,,,,,,,,,,,
691290f8a9d2ff4090233076,691290f8a9d2ff4090233076,2026-01-28T05:52:31.877Z,,Survey,126.0,126_non-creaky.wav,,157.png,,,,,,,,,Wireless Jabra Headphones,2026-01-28T05:52:31.877Z,7.0,7.0,7.0,both,7.0,,,,,,,,,,,,,,,,,,,,,
68d4239be163cb15b16606a6,68d4239be163cb15b16606a6,2026-01-28T05:52:34.865Z,,Survey,192.0,192_creaky.wav,,51.png,,,,,,,,,Wired Headset,2026-01-28T05:52:34.865Z,7.0,7.0,7.0,both,6.0,,,,,,,,,,,,,,,,,,,,,
691290f8a9d2ff4090233076,691290f8a9d2ff4090233076,2026-01-28T05:52:39.367Z,,Survey,1.0,1_non-creaky.wav,,1.png,,,,,,,,,Wireless Jabra Headphones,2026-01-28T05:52:39.367Z,7.0,7.0,7.0,msa,7.0,,,,,,,,,,,,,,,,,,,,,
68c03814183fb278ae8ac1c9,68c03814183fb278ae8ac1c9,2026-01-28T05:52:38.569Z,,Survey,150.0,150_creaky.wav,,6.png,,,,,,,,,Baseus Bowie E20,2026-01-28T05:52:38.569Z,1.0,5.0,1.0,msa,6.0,,,,,,,,,,,,,,,,,,,,,
5c1d19c810677f0001d9d56c,5c1d19c810677f0001d9d56c,2026-01-28T05:52:42.313Z,,Survey,2.0,2_non-creaky.wav,,1.png,,,,,,,,,JBL Tune 720BT,2026-01-28T05:52:42.313Z,5.0,6.0,5.0,msa,5.0,,,,,,,,,,,,,,,,,,,,,
691290f8a9d2ff4090233076,691290f8a9d2ff4090233076,2026-01-28T05:52:47.577Z,,Survey,161.0,161_creaky.wav,,16.png,,,,,,,,,Wireless Jabra Headphones,2026-01-28T05:52:47.577Z,7.0,7.0,7.0,dialect,1.0,,,,,,,,,,,,,,,,,,,,,
611b00c6f6cc82766cd07c16,611b00c6f6cc82766cd07c16,2026-01-28T05:52:52.221Z,,Survey,201.0,201_creaky.wav,,62.png,,,,,,,,,Wired Over-ear Headphones.,2026-01-28T05:52:52.221Z,7.0,7.0,7.0,msa,1.0,,,,,,,,,,,,,,,,,,,,,
5c1d19c810677f0001d9d56c,5c1d19c810677f0001d9d56c,2026-01-28T05:52:51.773Z,,Survey,219.0,219_creaky.wav,,83.png,,,,,,,,,JBL Tune 720BT,2026-01-28T05:52:51.773Z,5.0,7.0,6.0,both,5.0,,,,,,,,,,,,,,,,,,,,,
691290f8a9d2ff4090233076,691290f8a9d2ff4090233076,2026-01-28T05:52:54.761Z,,Survey,178.0,178_creaky.wav,,34.png,,,,,,,,,Wireless Jabra Headphones,2026-01-28T05:52:54.761Z,7.0,7.0,7.0,msa,7.0,,,,,,,,,,,,,,,,,,,,,
691290f8a9d2ff4090233076,691290f8a9d2ff4090233076,2026-01-28T05:53:03.085Z,,Survey,82.0,82_non-creaky.wav,,82.png,,,,,,,,,Wireless Jabra Headphones,2026-01-28T05:53:03.085Z,7.0,7.0,7.0,dialect,2.0,,,,,,,,,,,,,,,,,,,,,
68c03814183fb278ae8ac1c9,68c03814183fb278ae8ac1c9,2026-01-28T05:53:01.609Z,,Survey,241.0,241_creaky.wav,,112.png,,,,,,,,,Baseus Bowie E20,2026-01-28T05:53:01.609Z,3.0,5.0,6.0,msa,6.0,,,,,,,,,,,,,,,,,,,,,
5c1d19c810677f0001d9d56c,5c1d19c810677f0001d9d56c,2026-01-28T05:53:04.487Z,,Survey,255.0,255_creaky.wav,,137.png,,,,,,,,,JBL Tune 720BT,2026-01-28T05:53:04.487Z,3.0,6.0,5.0,dialect,4.0,,,,,,,,,,,,,,,,,,,,,
68d4239be163cb15b16606a6,68d4239be163cb15b16606a6,2026-01-28T05:53:06.681Z,,Survey,35.0,35_non-creaky.wav,,34.png,,,,,,,,,Wired Headset,2026-01-28T05:53:06.681Z,7.0,7.0,5.0,both,1.0,,,,,,,,,,,,,,,,,,,,,
691290f8a9d2ff4090233076,691290f8a9d2ff4090233076,2026-01-28T05:53:14.571Z,,Survey,260.0,260_creaky.wav,,145.png,,,,,,,,,Wireless Jabra Headphones,2026-01-28T05:53:14.571Z,7.0,7.0,7.0,both,7.0,,,,,,,,,,,,,,,,,,,,,
5c1d19c810677f0001d9d56c,5c1d19c810677f0001d9d56c,2026-01-28T05:53:14.112Z,,Survey,120.0,120_non-creaky.wav,,149.png,,,,,,,,,JBL Tune 720BT,2026-01-28T05:53:14.112Z,5.0,6.0,6.0,both,6.0,,,,,,,,,,,,,,,,,,,,,
68d40473576087257c6dcaf3,68d40473576087257c6dcaf3,2026-01-28T05:53:16.116Z,,Survey,262.0,262_creaky.wav,,147.png,,,,,,,,,Wired over-ear headphones,2026-01-28T05:53:16.116Z,7.0,7.0,5.0,dialect,6.0,,,,,,,,,,,,,,,,,,,,,
68d4239be163cb15b16606a6,68d4239be163cb15b16606a6,2026-01-28T05:53:16.437Z,,Survey,226.0,226_creaky.wav,,82.png,,,,,,,,,Wired Headset,2026-01-28T05:53:16.437Z,7.0,7.0,7.0,both,6.0,,,,,,,,,,,,,,,,,,,,,
691290f8a9d2ff4090233076,691290f8a9d2ff4090233076,2026-01-28T05:53:22.320Z,,Survey,116.0,116_non-creaky.wav,,145.png,,,,,,,,,Wireless Jabra Headphones,2026-01-28T05:53:22.320Z,7.0,7.0,7.0,msa,7.0,,,,,,,,,,,,,,,,,,,,,
5c1d19c810677f0001d9d56c,5c1d19c810677f0001d9d56c,2026-01-28T05:53:23.278Z,,Survey,169.0,169_creaky.wav,,25.png,,,,,,,,,JBL Tune 720BT,2026-01-28T05:53:23.278Z,3.0,6.0,5.0,dialect,3.0,,,,,,,,,,,,,,,,,,,,,
68c03814183fb278ae8ac1c9,68c03814183fb278ae8ac1c9,2026-01-28T05:53:22.443Z,,Survey,33.0,33_non-creaky.wav,,32.png,,,,,,,,,Baseus Bowie E20,2026-01-28T05:53:22.443Z,1.0,1.0,1.0,dialect,6.0,,,,,,,,,,,,,,,,,,,,,
691290f8a9d2ff4090233076,691290f8a9d2ff4090233076,2026-01-28T05:53:30.071Z,,Survey,225.0,225_creaky.wav,,81.png,,,,,,,,,Wireless Jabra Headphones,2026-01-28T05:53:30.071Z,7.0,7.0,7.0,dialect,1.0,,,,,,,,,,,,,,,,,,,,,
68d4239be163cb15b16606a6,68d4239be163cb15b16606a6,2026-01-28T05:53:31.954Z,,Survey,169.0,169_creaky.wav,,25.png,,,,,,,,,Wired Headset,2026-01-28T05:53:31.954Z,7.0,7.0,7.0,msa,6.0,,,,,,,,,,,,,,,,,,,,,
5c1d19c810677f0001d9d56c,5c1d19c810677f0001d9d56c,2026-01-28T05:53:35.651Z,,Survey,233.0,233_creaky.wav,,98.png,,,,,,,,,JBL Tune 720BT,2026-01-28T05:53:35.651Z,5.0,6.0,6.0,both,6.0,,,,,,,,,,,,,,,,,,,,,
691290f8a9d2ff4090233076,691290f8a9d2ff4090233076,2026-01-28T05:53:40.286Z,,Survey,169.0,169_creaky.wav,,25.png,,,,,,,,,Wireless Jabra Headphones,2026-01-28T05:53:40.286Z,7.0,7.0,4.0,msa,7.0,,,,,,,,,,,,,,,,,,,,,
68d4239be163cb15b16606a6,68d4239be163cb15b16606a6,2026-01-28T05:53:41.953Z,,Survey,116.0,116_non-creaky.wav,,145.png,,,,,,,,,Wired Headset,2026-01-28T05:53:41.953Z,7.0,7.0,7.0,both,6.0,,,,,,,,,,,,,,,,,,,,,
5c1d19c810677f0001d9d56c,5c1d19c810677f0001d9d56c,2026-01-28T05:53:43.487Z,,Survey,230.0,230_creaky.wav,,86.png,,,,,,,,,JBL Tune 720BT,2026-01-28T05:53:43.487Z,6.0,7.0,5.0,both,6.0,,,,,,,,,,,,,,,,,,,,,
691290f8a9d2ff4090233076,691290f8a9d2ff4090233076,2026-01-28T05:53:49.217Z,,Survey,216.0,216_creaky.wav,,80.png,,,,,,,,,Wireless Jabra Headphones,2026-01-28T05:53:49.217Z,7.0,7.0,7.0,msa,7.0,,,,,,,,,,,,,,,,,,,,,
5c1d19c810677f0001d9d56c,5c1d19c810677f0001d9d56c,2026-01-28T05:53:51.416Z,,Survey,122.0,122_non-creaky.wav,,151.png,,,,,,,,,JBL Tune 720BT,2026-01-28T05:53:51.416Z,6.0,7.0,7.0,both,5.0,,,,,,,,,,,,,,,,,,,,,
611b00c6f6cc82766cd07c16,611b00c6f6cc82766cd07c16,2026-01-28T05:53:56.138Z,,Survey,238.0,238_creaky.wav,,104.png,,,,,,,,,Wired Over-ear Headphones.,2026-01-28T05:53:56.138Z,7.0,7.0,6.0,msa,4.0,,,,,,,,,,,,,,,,,,,,,
68d4239be163cb15b16606a6,68d4239be163cb15b16606a6,2026-01-28T05:53:57.778Z,,Survey,8.0,8_non-creaky.wav,,6.png,,,,,,,,,Wired Headset,2026-01-28T05:53:57.778Z,1.0,,1.0,dialect,1.0,,,,,,,,,,,,,,,,,,,,,
5c1d19c810677f0001d9d56c,5c1d19c810677f0001d9d56c,2026-01-28T05:53:58.516Z,,Survey,69.0,69_non-creaky.wav,,72.png,,,,,,,,,JBL Tune 720BT,2026-01-28T05:53:58.516Z,6.0,7.0,7.0,both,6.0,,,,,,,,,,,,,,,,,,,,,
68c03814183fb278ae8ac1c9,68c03814183fb278ae8ac1c9,2026-01-28T05:54:01.630Z,,Survey,175.0,175_creaky.wav,,30.png,,,,,,,,,Baseus Bowie E20,2026-01-28T05:54:01.630Z,1.0,1.0,1.0,msa,3.0,,,,,,,,,,,,,,,,,,,,,
5c1d19c810677f0001d9d56c,5c1d19c810677f0001d9d56c,2026-01-28T05:54:05.738Z,,Survey,200.0,200_creaky.wav,,61.png,,,,,,,,,JBL Tune 720BT,2026-01-28T05:54:05.738Z,6.0,7.0,7.0,both,4.0,,,,,,,,,,,,,,,,,,,,,
5c1d19c810677f0001d9d56c,5c1d19c810677f0001d9d56c,2026-01-28T05:54:14.948Z,,Survey,142.0,142_non-creaky.wav,,180.png,,,,,,,,,JBL Tune 720BT,2026-01-28T05:54:14.948Z,5.0,7.0,6.0,both,6.0,,,,,,,,,,,,,,,,,,,,,
5c1d19c810677f0001d9d56c,5c1d19c810677f0001d9d56c,2026-01-28T05:54:21.729Z,,Survey,282.0,282_creaky.wav,,176.png,,,,,,,,,JBL Tune 720BT,2026-01-28T05:54:21.729Z,6.0,7.0,5.0,both,5.0,,,,,,,,,,,,,,,,,,,,,
68d4239be163cb15b16606a6,68d4239be163cb15b16606a6,2026-01-28T05:54:23.163Z,,Survey,278.0,278_creaky.wav,,167.png,,,,,,,,,Wired Headset,2026-01-28T05:54:23.163Z,5.0,7.0,7.0,msa,1.0,,,,,,,,,,,,,,,,,,,,,
68c03814183fb278ae8ac1c9,68c03814183fb278ae8ac1c9,2026-01-28T05:54:26.492Z,,Survey,55.0,55_non-creaky.wav,,60.png,,,,,,,,,Baseus Bowie E20,2026-01-28T05:54:26.492Z,4.0,7.0,7.0,msa,7.0,,,,,,,,,,,,,,,,,,,,,
68d4670874bf80ef3de3834d,68d4670874bf80ef3de3834d,2026-01-28T05:54:29.628Z,,Survey,240.0,240_creaky.wav,,109.png,,,,,,,,,Apple AirPods,2026-01-28T05:54:29.628Z,6.0,7.0,5.0,msa,5.0,,,,,,,,,,,,,,,,,,,,,
5c1d19c810677f0001d9d56c,5c1d19c810677f0001d9d56c,2026-01-28T05:54:28.618Z,,Survey,123.0,123_non-creaky.wav,,152.png,,,,,,,,,JBL Tune 720BT,2026-01-28T05:54:28.618Z,6.0,6.0,6.0,both,6.0,,,,,,,,,,,,,,,,,,,,,
611b00c6f6cc82766cd07c16,611b00c6f6cc82766cd07c16,2026-01-28T05:54:31.967Z,,Survey,177.0,177_creaky.wav,,32.png,,,,,,,,,Wired Over-ear Headphones.,2026-01-28T05:54:31.967Z,6.0,6.0,7.0,both,3.0,,,,,,,,,,,,,,,,,,,,,
5c1d19c810677f0001d9d56c,5c1d19c810677f0001d9d56c,2026-01-28T05:54:35.797Z,,Survey,65.0,65_non-creaky.wav,,72.png,,,,,,,,,JBL Tune 720BT,2026-01-28T05:54:35.797Z,6.0,7.0,5.0,both,6.0,,,,,,,,,,,,,,,,,,,,,
5c1d19c810677f0001d9d56c,5c1d19c810677f0001d9d56c,2026-01-28T05:54:44.108Z,,Survey,14.0,14_non-creaky.wav,,14.png,,,,,,,,,JBL Tune 720BT,2026-01-28T05:54:44.108Z,6.0,6.0,7.0,both,6.0,,,,,,,,,,,,,,,,,,,,,
68c03814183fb278ae8ac1c9,68c03814183fb278ae8ac1c9,2026-01-28T05:54:52.064Z,,Survey,214.0,214_creaky.wav,,73.png,,,,,,,,,Baseus Bowie E20,2026-01-28T05:54:52.064Z,7.0,7.0,7.0,both,2.0,,,,,,,,,,,,,,,,,,,,,
5c1d19c810677f0001d9d56c,5c1d19c810677f0001d9d56c,2026-01-28T05:54:51.312Z,,Survey,77.0,77_non-creaky.wav,,85.png,,,,,,,,,JBL Tune 720BT,2026-01-28T05:54:51.312Z,6.0,7.0,6.0,both,6.0,,,,,,,,,,,,,,,,,,,,,
68d4670874bf80ef3de3834d,68d4670874bf80ef3de3834d,2026-01-28T05:54:55.853Z,,Survey,82.0,82_non-creaky.wav,,82.png,,,,,,,,,Apple AirPods,2026-01-28T05:54:55.853Z,7.0,7.0,7.0,both,7.0,,,,,,,,,,,,,,,,,,,,,
68d4239be163cb15b16606a6,68d4239be163cb15b16606a6,2026-01-28T05:55:00.172Z,,Survey,207.0,207_creaky.wav,,69.png,,,,,,,,,Wired Headset,2026-01-28T05:55:00.172Z,7.0,7.0,7.0,both,5.0,,,,,,,,,,,,,,,,,,,,,
5c1d19c810677f0001d9d56c,5c1d19c810677f0001d9d56c,2026-01-28T05:55:00.613Z,,Survey,279.0,279_creaky.wav,,168.png,,,,,,,,,JBL Tune 720BT,2026-01-28T05:55:00.613Z,6.0,7.0,6.0,both,7.0,,,,,,,,,,,,,,,,,,,,,
68d4239be163cb15b16606a6,68d4239be163cb15b16606a6,2026-01-28T05:55:08.029Z,,Survey,150.0,150_creaky.wav,,6.png,,,,,,,,,Wired Headset,2026-01-28T05:55:08.029Z,1.0,,1.0,msa,1.0,,,,,,,,,,,,,,,,,,,,,
68d40473576087257c6dcaf3,68d40473576087257c6dcaf3,2026-01-28T05:55:03.947Z,,Survey,41.0,41_non-creaky.wav,,42.png,,,,,,,,,Wired over-ear headphones,2026-01-28T05:55:03.947Z,7.0,7.0,5.0,dialect,3.0,,,,,,,,,,,,,,,,,,,,,
68d4670874bf80ef3de3834d,68d4670874bf80ef3de3834d,2026-01-28T05:55:15.322Z,,Survey,49.0,49_non-creaky.wav,,52.png,,,,,,,,,Apple AirPods,2026-01-28T05:55:15.322Z,7.0,7.0,7.0,msa,7.0,,,,,,,,,,,,,,,,,,,,,
68d4239be163cb15b16606a6,68d4239be163cb15b16606a6,2026-01-28T05:55:19.359Z,,Survey,135.0,135_non-creaky.wav,,168.png,,,,,,,,,Wired Headset,2026-01-28T05:55:19.359Z,7.0,7.0,7.0,both,5.0,,,,,,,,,,,,,,,,,,,,,
68c03814183fb278ae8ac1c9,68c03814183fb278ae8ac1c9,2026-01-28T05:55:18.938Z,,Survey,93.0,93_non-creaky.wav,,104.png,,,,,,,,,Baseus Bowie E20,2026-01-28T05:55:18.938Z,7.0,7.0,7.0,both,7.0,,,,,,,,,,,,,,,,,,,,,
5c1d19c810677f0001d9d56c,5c1d19c810677f0001d9d56c,2026-01-28T05:55:21.461Z,,Survey,223.0,223_creaky.wav,,87.png,,,,,,,,,JBL Tune 720BT,2026-01-28T05:55:21.461Z,1.0,,5.0,dialect,4.0,,,,,,,,,,,,,,,,,,,,,
68d40473576087257c6dcaf3,68d40473576087257c6dcaf3,2026-01-28T05:55:25.041Z,,Survey,180.0,180_creaky.wav,,36.png,,,,,,,,,Wired over-ear headphones,2026-01-28T05:55:25.041Z,7.0,7.0,7.0,msa,6.0,,,,,,,,,,,,,,,,,,,,,
68c03814183fb278ae8ac1c9,68c03814183fb278ae8ac1c9,2026-01-28T05:55:31.125Z,,Survey,190.0,190_creaky.wav,,48.png,,,,,,,,,Baseus Bowie E20,2026-01-28T05:55:31.125Z,5.0,7.0,7.0,both,7.0,,,,,,,,,,,,,,,,,,,,,
68d4239be163cb15b16606a6,68d4239be163cb15b16606a6,2026-01-28T05:55:38.889Z,,Survey,176.0,176_creaky.wav,,32.png,,,,,,,,,Wired Headset,2026-01-28T05:55:38.889Z,4.0,7.0,7.0,msa,2.0,,,,,,,,,,,,,,,,,,,,,
5c1d19c810677f0001d9d56c,5c1d19c810677f0001d9d56c,2026-01-28T05:55:39.216Z,,Survey,13.0,13_non-creaky.wav,,12.png,,,,,,,,,JBL Tune 720BT,2026-01-28T05:55:39.216Z,3.0,,5.0,dialect,4.0,,,,,,,,,,,,,,,,,,,,,
611b00c6f6cc82766cd07c16,611b00c6f6cc82766cd07c16,2026-01-28T05:55:43.136Z,,Survey,135.0,135_non-creaky.wav,,168.png,,,,,,,,,Wired Over-ear Headphones.,2026-01-28T05:55:43.136Z,7.0,7.0,7.0,both,6.0,,,,,,,,,,,,,,,,,,,,,
68d40473576087257c6dcaf3,68d40473576087257c6dcaf3,2026-01-28T05:55:44.634Z,,Survey,62.0,62_non-creaky.wav,,68.png,,,,,,,,,Wired over-ear headphones,2026-01-28T05:55:44.634Z,7.0,7.0,7.0,msa,7.0,,,,,,,,,,,,,,,,,,,,,
68d4670874bf80ef3de3834d,68d4670874bf80ef3de3834d,2026-01-28T05:55:45.325Z,,Survey,190.0,190_creaky.wav,,48.png,,,,,,,,,Apple AirPods,2026-01-28T05:55:45.325Z,7.0,7.0,7.0,msa,6.0,,,,,,,,,,,,,,,,,,,,,
5c1d19c810677f0001d9d56c,5c1d19c810677f0001d9d56c,2026-01-28T05:55:47.032Z,,Survey,260.0,260_creaky.wav,,145.png,,,,,,,,,JBL Tune 720BT,2026-01-28T05:55:47.032Z,6.0,7.0,7.0,both,6.0,,,,,,,,,,,,,,,,,,,,,
68c03814183fb278ae8ac1c9,68c03814183fb278ae8ac1c9,2026-01-28T05:55:46.087Z,,Survey,218.0,218_creaky.wav,,82.png,,,,,,,,,Baseus Bowie E20,2026-01-28T05:55:46.087Z,7.0,7.0,7.0,both,7.0,,,,,,,,,,,,,,,,,,,,,
68d4239be163cb15b16606a6,68d4239be163cb15b16606a6,2026-01-28T05:55:48.766Z,,Survey,223.0,223_creaky.wav,,87.png,,,,,,,,,Wired Headset,2026-01-28T05:55:48.766Z,1.0,,1.0,msa,1.0,,,,,,,,,,,,,,,,,,,,,
5c1d19c810677f0001d9d56c,5c1d19c810677f0001d9d56c,2026-01-28T05:55:54.645Z,,Survey,240.0,240_creaky.wav,,109.png,,,,,,,,,JBL Tune 720BT,2026-01-28T05:55:54.645Z,6.0,7.0,6.0,msa,5.0,,,,,,,,,,,,,,,,,,,,,
611b00c6f6cc82766cd07c16,611b00c6f6cc82766cd07c16,2026-01-28T05:55:59.634Z,,Survey,279.0,279_creaky.wav,,168.png,,,,,,,,,Wired Over-ear Headphones.,2026-01-28T05:55:59.634Z,7.0,7.0,7.0,dialect,1.0,,,,,,,,,,,,,,,,,,,,,
68d4239be163cb15b16606a6,68d4239be163cb15b16606a6,2026-01-28T05:55:58.216Z,,Survey,239.0,239_creaky.wav,,107.png,,,,,,,,,Wired Headset,2026-01-28T05:55:58.216Z,7.0,7.0,7.0,both,6.0,,,,,,,,,,,,,,,,,,,,,
5c1d19c810677f0001d9d56c,5c1d19c810677f0001d9d56c,2026-01-28T05:56:04.471Z,,Survey,103.0,103_non-creaky.wav,,120.png,,,,,,,,,JBL Tune 720BT,2026-01-28T05:56:04.471Z,5.0,6.0,6.0,both,6.0,,,,,,,,,,,,,,,,,,,,,
68d40473576087257c6dcaf3,68d40473576087257c6dcaf3,2026-01-28T05:56:05.972Z,,Survey,217.0,217_creaky.wav,,81.png,,,,,,,,,Wired over-ear headphones,2026-01-28T05:56:05.972Z,7.0,7.0,7.0,msa,6.0,,,,,,,,,,,,,,,,,,,,,
68d4239be163cb15b16606a6,68d4239be163cb15b16606a6,2026-01-28T05:56:08.014Z,,Survey,62.0,62_non-creaky.wav,,68.png,,,,,,,,,Wired Headset,2026-01-28T05:56:08.014Z,7.0,7.0,7.0,both,6.0,,,,,,,,,,,,,,,,,,,,,
5c1d19c810677f0001d9d56c,5c1d19c810677f0001d9d56c,2026-01-28T05:56:12.237Z,,Survey,178.0,178_creaky.wav,,34.png,,,,,,,,,JBL Tune 720BT,2026-01-28T05:56:12.237Z,6.0,7.0,7.0,both,6.0,,,,,,,,,,,,,,,,,,,,,
5c1d19c810677f0001d9d56c,5c1d19c810677f0001d9d56c,2026-01-28T05:56:18.742Z,,Survey,186.0,186_creaky.wav,,44.png,,,,,,,,,JBL Tune 720BT,2026-01-28T05:56:18.742Z,6.0,7.0,6.0,both,6.0,,,,,,,,,,,,,,,,,,,,,
68d4670874bf80ef3de3834d,68d4670874bf80ef3de3834d,2026-01-28T05:56:19.254Z,,Survey,281.0,281_creaky.wav,,175.png,,,,,,,,,Apple AirPods,2026-01-28T05:56:19.254Z,7.0,7.0,4.0,both,5.0,,,,,,,,,,,,,,,,,,,,,
68d4239be163cb15b16606a6,68d4239be163cb15b16606a6,2026-01-28T05:56:20.240Z,,Survey,188.0,188_creaky.wav,,46.png,,,,,,,,,Wired Headset,2026-01-28T05:56:20.240Z,7.0,7.0,7.0,both,6.0,,,,,,,,,,,,,,,,,,,,,
5c1d19c810677f0001d9d56c,5c1d19c810677f0001d9d56c,2026-01-28T05:56:25.736Z,,Survey,172.0,172_creaky.wav,,28.png,,,,,,,,,JBL Tune 720BT,2026-01-28T05:56:25.736Z,6.0,6.0,6.0,both,6.0,,,,,,,,,,,,,,,,,,,,,
611b00c6f6cc82766cd07c16,611b00c6f6cc82766cd07c16,2026-01-28T05:56:28.963Z,,Survey,220.0,220_creaky.wav,,84.png,,,,,,,,,Wired Over-ear Headphones.,2026-01-28T05:56:28.963Z,6.0,6.0,1.0,dialect,2.0,,,,,,,,,,,,,,,,,,,,,
68d4239be163cb15b16606a6,68d4239be163cb15b16606a6,2026-01-28T05:56:27.863Z,,Survey,48.0,48_non-creaky.wav,,51.png,,,,,,,,,Wired Headset,2026-01-28T05:56:27.863Z,7.0,7.0,7.0,both,6.0,,,,,,,,,,,,,,,,,,,,,
68c03814183fb278ae8ac1c9,68c03814183fb278ae8ac1c9,2026-01-28T05:56:28.145Z,,Survey,91.0,91_non-creaky.wav,,101.png,,,,,,,,,Baseus Bowie E20,2026-01-28T05:56:28.145Z,1.0,3.0,5.0,msa,3.0,,,,,,,,,,,,,,,,,,,,,
5c1d19c810677f0001d9d56c,5c1d19c810677f0001d9d56c,2026-01-28T05:56:32.558Z,,Survey,239.0,239_creaky.wav,,107.png,,,,,,,,,JBL Tune 720BT,2026-01-28T05:56:32.558Z,6.0,7.0,5.0,both,4.0,,,,,,,,,,,,,,,,,,,,,
691290f8a9d2ff4090233076,691290f8a9d2ff4090233076,2026-01-28T05:56:38.886Z,,Survey,244.0,244_creaky.wav,,117.png,,,,,,,,,Wireless Jabra Headphones,2026-01-28T05:56:38.886Z,7.0,7.0,7.0,msa,7.0,,,,,,,,,,,,,,,,,,,,,
68d40473576087257c6dcaf3,68d40473576087257c6dcaf3,2026-01-28T05:56:41.871Z,,Survey,100.0,100_non-creaky.wav,,117.png,,,,,,,,,Wired over-ear headphones,2026-01-28T05:56:41.871Z,7.0,7.0,7.0,msa,7.0,,,,,,,,,,,,,,,,,,,,,
5c1d19c810677f0001d9d56c,5c1d19c810677f0001d9d56c,2026-01-28T05:56:42.388Z,,Survey,88.0,88_non-creaky.wav,,96.png,,,,,,,,,JBL Tune 720BT,2026-01-28T05:56:42.388Z,6.0,7.0,6.0,dialect,5.0,,,,,,,,,,,,,,,,,,,,,
68c03814183fb278ae8ac1c9,68c03814183fb278ae8ac1c9,2026-01-28T05:56:41.439Z,,Survey,261.0,261_creaky.wav,,146.png,,,,,,,,,Baseus Bowie E20,2026-01-28T05:56:41.439Z,7.0,7.0,7.0,both,7.0,,,,,,,,,,,,,,,,,,,,,
611b00c6f6cc82766cd07c16,611b00c6f6cc82766cd07c16,2026-01-28T05:56:46.027Z,,Survey,187.0,187_creaky.wav,,44.png,,,,,,,,,Wired Over-ear Headphones.,2026-01-28T05:56:46.027Z,7.0,7.0,7.0,dialect,5.0,,,,,,,,,,,,,,,,,,,,,
68d4670874bf80ef3de3834d,68d4670874bf80ef3de3834d,2026-01-28T05:56:51.768Z,,Survey,151.0,151_creaky.wav,,7.png,,,,,,,,,Apple AirPods,2026-01-28T05:56:51.768Z,5.0,6.0,6.0,msa,7.0,,,,,,,,,,,,,,,,,,,,,
68d4239be163cb15b16606a6,68d4239be163cb15b16606a6,2026-01-28T05:56:52.426Z,,Survey,271.0,271_creaky.wav,,158.png,,,,,,,,,Wired Headset,2026-01-28T05:56:52.426Z,5.0,7.0,7.0,both,5.0,,,,,,,,,,,,,,,,,,,,,
5c1d19c810677f0001d9d56c,5c1d19c810677f0001d9d56c,2026-01-28T05:56:52.748Z,,Survey,244.0,244_creaky.wav,,117.png,,,,,,,,,JBL Tune 720BT,2026-01-28T05:56:52.748Z,6.0,7.0,5.0,msa,5.0,,,,,,,,,,,,,,,,,,,,,
611b00c6f6cc82766cd07c16,611b00c6f6cc82766cd07c16,2026-01-28T05:57:01.939Z,,Survey,82.0,82_non-creaky.wav,,82.png,,,,,,,,,Wired Over-ear Headphones.,2026-01-28T05:57:01.939Z,7.0,7.0,7.0,dialect,6.0,,,,,,,,,,,,,,,,,,,,,
68c03814183fb278ae8ac1c9,68c03814183fb278ae8ac1c9,2026-01-28T05:57:00.528Z,,Survey,225.0,225_creaky.wav,,81.png,,,,,,,,,Baseus Bowie E20,2026-01-28T05:57:00.528Z,7.0,7.0,7.0,both,4.0,,,,,,,,,,,,,,,,,,,,,
5c1d19c810677f0001d9d56c,5c1d19c810677f0001d9d56c,2026-01-28T05:57:01.959Z,,Survey,277.0,277_creaky.wav,,165.png,,,,,,,,,JBL Tune 720BT,2026-01-28T05:57:01.959Z,6.0,7.0,5.0,msa,5.0,,,,,,,,,,,,,,,,,,,,,
68d4670874bf80ef3de3834d,68d4670874bf80ef3de3834d,2026-01-28T05:57:04.513Z,,Survey,45.0,45_non-creaky.wav,,47.png,,,,,,,,,Apple AirPods,2026-01-28T05:57:04.513Z,7.0,7.0,7.0,msa,7.0,,,,,,,,,,,,,,,,,,,,,
68d4239be163cb15b16606a6,68d4239be163cb15b16606a6,2026-01-28T05:57:04.583Z,,Survey,172.0,172_creaky.wav,,28.png,,,,,,,,,Wired Headset,2026-01-28T05:57:04.583Z,7.0,7.0,7.0,msa,5.0,,,,,,,,,,,,,,,,,,,,,
68d40473576087257c6dcaf3,68d40473576087257c6dcaf3,2026-01-28T05:57:06.742Z,,Survey,66.0,66_non-creaky.wav,,73.png,,,,,,,,,Wired over-ear headphones,2026-01-28T05:57:06.742Z,7.0,7.0,7.0,msa,7.0,,,,,,,,,,,,,,,,,,,,,
5c1d19c810677f0001d9d56c,5c1d19c810677f0001d9d56c,2026-01-28T05:57:10.061Z,,Survey,118.0,118_non-creaky.wav,,147.png,,,,,,,,,JBL Tune 720BT,2026-01-28T05:57:10.061Z,6.0,7.0,7.0,both,5.0,,,,,,,,,,,,,,,,,,,,,
68d4670874bf80ef3de3834d,68d4670874bf80ef3de3834d,2026-01-28T05:57:17.925Z,,Survey,254.0,254_creaky.wav,,135.png,,,,,,,,,Apple AirPods,2026-01-28T05:57:17.925Z,7.0,7.0,7.0,both,5.0,,,,,,,,,,,,,,,,,,,,,
5c1d19c810677f0001d9d56c,5c1d19c810677f0001d9d56c,2026-01-28T05:57:17.574Z,,Survey,54.0,54_non-creaky.wav,,57.png,,,,,,,,,JBL Tune 720BT,2026-01-28T05:57:17.574Z,6.0,7.0,6.0,both,6.0,,,,,,,,,,,,,,,,,,,,,
68d40473576087257c6dcaf3,68d40473576087257c6dcaf3,2026-01-28T05:57:18.714Z,,Survey,44.0,44_non-creaky.wav,,46.png,,,,,,,,,Wired over-ear headphones,2026-01-28T05:57:18.714Z,7.0,7.0,7.0,both,7.0,,,,,,,,,,,,,,,,,,,,,
611b00c6f6cc82766cd07c16,611b00c6f6cc82766cd07c16,2026-01-28T05:57:21.222Z,,Survey,269.0,269_creaky.wav,,156.png,,,,,,,,,Wired Over-ear Headphones.,2026-01-28T05:57:21.222Z,7.0,7.0,1.0,msa,5.0,,,,,,,,,,,,,,,,,,,,,
68d4239be163cb15b16606a6,68d4239be163cb15b16606a6,2026-01-28T05:57:20.031Z,,Survey,225.0,225_creaky.wav,,81.png,,,,,,,,,Wired Headset,2026-01-28T05:57:20.031Z,7.0,7.0,7.0,dialect,5.0,,,,,,,,,,,,,,,,,,,,,
68c03814183fb278ae8ac1c9,68c03814183fb278ae8ac1c9,2026-01-28T05:57:21.368Z,,Survey,51.0,51_non-creaky.wav,,54.png,,,,,,,,,Baseus Bowie E20,2026-01-28T05:57:21.368Z,5.0,5.0,6.0,both,1.0,,,,,,,,,,,,,,,,,,,,,
5c1d19c810677f0001d9d56c,5c1d19c810677f0001d9d56c,2026-01-28T05:57:24.076Z,,Survey,261.0,261_creaky.wav,,146.png,,,,,,,,,JBL Tune 720BT,2026-01-28T05:57:24.076Z,6.0,6.0,6.0,both,6.0,,,,,,,,,,,,,,,,,,,,,
5c1d19c810677f0001d9d56c,5c1d19c810677f0001d9d56c,2026-01-28T05:57:31.956Z,,Survey,154.0,154_creaky.wav,,10.png,,,,,,,,,JBL Tune 720BT,2026-01-28T05:57:31.956Z,6.0,7.0,5.0,both,4.0,,,,,,,,,,,,,,,,,,,,,
68d40473576087257c6dcaf3,68d40473576087257c6dcaf3,2026-01-28T05:57:37.854Z,,Survey,203.0,203_creaky.wav,,64.png,,,,,,,,,Wired over-ear headphones,2026-01-28T05:57:37.854Z,7.0,7.0,7.0,both,3.0,,,,,,,,,,,,,,,,,,,,,
5c1d19c810677f0001d9d56c,5c1d19c810677f0001d9d56c,2026-01-28T05:57:39.046Z,,Survey,106.0,106_non-creaky.wav,,125.png,,,,,,,,,JBL Tune 720BT,2026-01-28T05:57:39.046Z,6.0,7.0,7.0,both,7.0,,,,,,,,,,,,,,,,,,,,,
68d4670874bf80ef3de3834d,68d4670874bf80ef3de3834d,2026-01-28T05:57:39.957Z,,Survey,220.0,220_creaky.wav,,84.png,,,,,,,,,Apple AirPods,2026-01-28T05:57:39.957Z,6.0,7.0,6.0,msa,5.0,,,,,,,,,,,,,,,,,,,,,
5c1d19c810677f0001d9d56c,5c1d19c810677f0001d9d56c,2026-01-28T05:57:45.892Z,,Survey,63.0,63_non-creaky.wav,,69.png,,,,,,,,,JBL Tune 720BT,2026-01-28T05:57:45.892Z,7.0,7.0,7.0,both,7.0,,,,,,,,,,,,,,,,,,,,,
68c03814183fb278ae8ac1c9,68c03814183fb278ae8ac1c9,2026-01-28T05:57:45.356Z,,Survey,269.0,269_creaky.wav,,156.png,,,,,,,,,Baseus Bowie E20,2026-01-28T05:57:45.356Z,7.0,7.0,1.0,both,7.0,,,,,,,,,,,,,,,,,,,,,
68d4239be163cb15b16606a6,68d4239be163cb15b16606a6,2026-01-28T05:57:47.978Z,,Survey,139.0,139_non-creaky.wav,,177.png,,,,,,,,,Wired Headset,2026-01-28T05:57:47.978Z,7.0,7.0,7.0,both,6.0,,,,,,,,,,,,,,,,,,,,,
68d40473576087257c6dcaf3,68d40473576087257c6dcaf3,2026-01-28T05:57:57.729Z,,Survey,120.0,120_non-creaky.wav,,149.png,,,,,,,,,Wired over-ear headphones,2026-01-28T05:57:57.729Z,7.0,7.0,7.0,msa,7.0,,,,,,,,,,,,,,,,,,,,,
68d4239be163cb15b16606a6,68d4239be163cb15b16606a6,2026-01-28T05:57:59.564Z,,Survey,252.0,252_creaky.wav,,129.png,,,,,,,,,Wired Headset,2026-01-28T05:57:59.564Z,7.0,7.0,7.0,both,5.0,,,,,,,,,,,,,,,,,,,,,
68d4670874bf80ef3de3834d,68d4670874bf80ef3de3834d,2026-01-28T05:58:00.924Z,,Survey,125.0,125_non-creaky.wav,,156.png,,,,,,,,,Apple AirPods,2026-01-28T05:58:00.924Z,7.0,7.0,6.0,msa,6.0,,,,,,,,,,,,,,,,,,,,,
611b00c6f6cc82766cd07c16,611b00c6f6cc82766cd07c16,2026-01-28T05:58:02.442Z,,Survey,180.0,180_creaky.wav,,36.png,,,,,,,,,Wired Over-ear Headphones.,2026-01-28T05:58:02.442Z,6.0,6.0,7.0,both,5.0,,,,,,,,,,,,,,,,,,,,,
691290f8a9d2ff4090233076,691290f8a9d2ff4090233076,2026-01-28T05:58:05.692Z,,Survey,36.0,36_non-creaky.wav,,36.png,,,,,,,,,Wireless Jabra Headphones,2026-01-28T05:58:05.692Z,7.0,7.0,7.0,msa,7.0,,,,,,,,,,,,,,,,,,,,,
68c03814183fb278ae8ac1c9,68c03814183fb278ae8ac1c9,2026-01-28T05:58:09.008Z,,Survey,181.0,181_creaky.wav,,36.png,,,,,,,,,Baseus Bowie E20,2026-01-28T05:58:09.008Z,1.0,3.0,2.0,msa,3.0,,,,,,,,,,,,,,,,,,,,,
5c1d19c810677f0001d9d56c,5c1d19c810677f0001d9d56c,2026-01-28T05:58:08.800Z,,Survey,245.0,245_creaky.wav,,118.png,,,,,,,,,JBL Tune 720BT,2026-01-28T05:58:08.800Z,1.0,2.0,3.0,dialect,4.0,,,,,,,,,,,,,,,,,,,,,
611b00c6f6cc82766cd07c16,611b00c6f6cc82766cd07c16,2026-01-28T05:58:19.281Z,,Survey,183.0,183_creaky.wav,,40.png,,,,,,,,,Wired Over-ear Headphones.,2026-01-28T05:58:19.281Z,7.0,7.0,7.0,dialect,1.0,,,,,,,,,,,,,,,,,,,,,
68d4239be163cb15b16606a6,68d4239be163cb15b16606a6,2026-01-28T05:58:20.402Z,,Survey,270.0,270_creaky.wav,,157.png,,,,,,,,,Wired Headset,2026-01-28T05:58:20.402Z,6.0,7.0,1.0,both,5.0,,,,,,,,,,,,,,,,,,,,,
5c1d19c810677f0001d9d56c,5c1d19c810677f0001d9d56c,2026-01-28T05:58:16.647Z,,Survey,107.0,107_non-creaky.wav,,127.png,,,,,,,,,JBL Tune 720BT,2026-01-28T05:58:16.647Z,6.0,7.0,6.0,both,6.0,,,,,,,,,,,,,,,,,,,,,
5c1d19c810677f0001d9d56c,5c1d19c810677f0001d9d56c,2026-01-28T05:58:22.598Z,,Survey,73.0,73_non-creaky.wav,,81.png,,,,,,,,,JBL Tune 720BT,2026-01-28T05:58:22.598Z,7.0,7.0,7.0,both,7.0,,,,,,,,,,,,,,,,,,,,,
691290f8a9d2ff4090233076,691290f8a9d2ff4090233076,2026-01-28T05:58:23.968Z,,Survey,134.0,134_non-creaky.wav,,167.png,,,,,,,,,Wireless Jabra Headphones,2026-01-28T05:58:23.968Z,4.0,4.0,7.0,dialect,1.0,,,,,,,,,,,,,,,,,,,,,
68c03814183fb278ae8ac1c9,68c03814183fb278ae8ac1c9,2026-01-28T05:58:21.055Z,,Survey,256.0,256_creaky.wav,,139.png,,,,,,,,,Baseus Bowie E20,2026-01-28T05:58:21.055Z,7.0,7.0,7.0,both,7.0,,,,,,,,,,,,,,,,,,,,,
68d4670874bf80ef3de3834d,68d4670874bf80ef3de3834d,2026-01-28T05:58:25.301Z,,Survey,214.0,214_creaky.wav,,73.png,,,,,,,,,Apple AirPods,2026-01-28T05:58:25.301Z,7.0,7.0,6.0,both,3.0,,,,,,,,,,,,,,,,,,,,,
5c1d19c810677f0001d9d56c,5c1d19c810677f0001d9d56c,2026-01-28T05:58:28.050Z,,Survey,42.0,42_non-creaky.wav,,44.png,,,,,,,,,JBL Tune 720BT,2026-01-28T05:58:28.050Z,6.0,7.0,7.0,both,7.0,,,,,,,,,,,,,,,,,,,,,
691290f8a9d2ff4090233076,691290f8a9d2ff4090233076,2026-01-28T05:58:33.714Z,,Survey,212.0,212_creaky.wav,,75.png,,,,,,,,,Wireless Jabra Headphones,2026-01-28T05:58:33.714Z,7.0,7.0,7.0,dialect,1.0,,,,,,,,,,,,,,,,,,,,,
68d4239be163cb15b16606a6,68d4239be163cb15b16606a6,2026-01-28T05:58:36.557Z,,Survey,93.0,93_non-creaky.wav,,104.png,,,,,,,,,Wired Headset,2026-01-28T05:58:36.557Z,7.0,7.0,7.0,msa,6.0,,,,,,,,,,,,,,,,,,,,,
5c1d19c810677f0001d9d56c,5c1d19c810677f0001d9d56c,2026-01-28T05:58:35.732Z,,Survey,124.0,124_non-creaky.wav,,155.png,,,,,,,,,JBL Tune 720BT,2026-01-28T05:58:35.732Z,6.0,7.0,7.0,both,6.0,,,,,,,,,,,,,,,,,,,,,
611b00c6f6cc82766cd07c16,611b00c6f6cc82766cd07c16,2026-01-28T05:58:40.549Z,,Survey,217.0,217_creaky.wav,,81.png,,,,,,,,,Wired Over-ear Headphones.,2026-01-28T05:58:40.549Z,7.0,7.0,7.0,both,5.0,,,,,,,,,,,,,,,,,,,,,
691290f8a9d2ff4090233076,691290f8a9d2ff4090233076,2026-01-28T05:58:44.043Z,,Survey,37.0,37_non-creaky.wav,,36.png,,,,,,,,,Wireless Jabra Headphones,2026-01-28T05:58:44.043Z,7.0,7.0,7.0,dialect,1.0,,,,,,,,,,,,,,,,,,,,,
68d4239be163cb15b16606a6,68d4239be163cb15b16606a6,2026-01-28T05:58:46.961Z,,Survey,276.0,276_creaky.wav,,164.png,,,,,,,,,Wired Headset,2026-01-28T05:58:46.961Z,7.0,7.0,7.0,both,5.0,,,,,,,,,,,,,,,,,,,,,
68d40473576087257c6dcaf3,68d40473576087257c6dcaf3,2026-01-28T05:58:47.818Z,,Survey,216.0,216_creaky.wav,,80.png,,,,,,,,,Wired over-ear headphones,2026-01-28T05:58:47.818Z,7.0,7.0,7.0,both,4.0,,,,,,,,,,,,,,,,,,,,,
68c03814183fb278ae8ac1c9,68c03814183fb278ae8ac1c9,2026-01-28T05:58:46.346Z,,Survey,160.0,160_creaky.wav,,16.png,,,,,,,,,Baseus Bowie E20,2026-01-28T05:58:46.346Z,5.0,6.0,6.0,both,5.0,,,,,,,,,,,,,,,,,,,,,
5c1d19c810677f0001d9d56c,5c1d19c810677f0001d9d56c,2026-01-28T05:58:45.494Z,,Survey,43.0,43_non-creaky.wav,,44.png,,,,,,,,,JBL Tune 720BT,2026-01-28T05:58:45.494Z,7.0,7.0,6.0,both,2.0,,,,,,,,,,,,,,,,,,,,,
68d4670874bf80ef3de3834d,68d4670874bf80ef3de3834d,2026-01-28T05:58:47.266Z,,Survey,122.0,122_non-creaky.wav,,151.png,,,,,,,,,Apple AirPods,2026-01-28T05:58:47.266Z,7.0,7.0,7.0,msa,7.0,,,,,,,,,,,,,,,,,,,,,
5c1d19c810677f0001d9d56c,5c1d19c810677f0001d9d56c,2026-01-28T05:58:58.386Z,,Survey,173.0,173_creaky.wav,,28.png,,,,,,,,,JBL Tune 720BT,2026-01-28T05:58:58.386Z,6.0,7.0,7.0,both,7.0,,,,,,,,,,,,,,,,,,,,,
5c1d19c810677f0001d9d56c,5c1d19c810677f0001d9d56c,2026-01-28T05:59:04.589Z,,Survey,48.0,48_non-creaky.wav,,51.png,,,,,,,,,JBL Tune 720BT,2026-01-28T05:59:04.589Z,6.0,7.0,6.0,both,7.0,,,,,,,,,,,,,,,,,,,,,
68d4239be163cb15b16606a6,68d4239be163cb15b16606a6,2026-01-28T05:59:05.317Z,,Survey,85.0,85_non-creaky.wav,,85.png,,,,,,,,,Wired Headset,2026-01-28T05:59:05.317Z,7.0,7.0,5.0,dialect,6.0,,,,,,,,,,,,,,,,,,,,,
68d40473576087257c6dcaf3,68d40473576087257c6dcaf3,2026-01-28T05:59:01.331Z,,Survey,179.0,179_creaky.wav,,34.png,,,,,,,,,Wired over-ear headphones,2026-01-28T05:59:01.331Z,7.0,7.0,7.0,dialect,5.0,,,,,,,,,,,,,,,,,,,,,
691290f8a9d2ff4090233076,691290f8a9d2ff4090233076,2026-01-28T05:59:13.222Z,,Survey,75.0,75_non-creaky.wav,,83.png,,,,,,,,,Wireless Jabra Headphones,2026-01-28T05:59:13.222Z,7.0,7.0,7.0,msa,7.0,,,,,,,,,,,,,,,,,,,,,
611b00c6f6cc82766cd07c16,611b00c6f6cc82766cd07c16,2026-01-28T05:59:12.336Z,,Survey,210.0,210_creaky.wav,,73.png,,,,,,,,,Wired Over-ear Headphones.,2026-01-28T05:59:12.336Z,7.0,7.0,7.0,msa,6.0,,,,,,,,,,,,,,,,,,,,,
68d4670874bf80ef3de3834d,68d4670874bf80ef3de3834d,2026-01-28T05:59:14.123Z,,Survey,79.0,79_non-creaky.wav,,87.png,,,,,,,,,Apple AirPods,2026-01-28T05:59:14.123Z,5.0,5.0,4.0,msa,5.0,,,,,,,,,,,,,,,,,,,,,
68c03814183fb278ae8ac1c9,68c03814183fb278ae8ac1c9,2026-01-28T05:59:19.214Z,,Survey,167.0,167_creaky.wav,,23.png,,,,,,,,,Baseus Bowie E20,2026-01-28T05:59:19.214Z,4.0,6.0,6.0,msa,7.0,,,,,,,,,,,,,,,,,,,,,
5c1d19c810677f0001d9d56c,5c1d19c810677f0001d9d56c,2026-01-28T05:59:20.822Z,,Survey,74.0,74_non-creaky.wav,,82.png,,,,,,,,,JBL Tune 720BT,2026-01-28T05:59:20.822Z,6.0,7.0,7.0,both,6.0,,,,,,,,,,,,,,,,,,,,,
611b00c6f6cc82766cd07c16,611b00c6f6cc82766cd07c16,2026-01-28T05:59:25.754Z,,Survey,77.0,77_non-creaky.wav,,85.png,,,,,,,,,Wired Over-ear Headphones.,2026-01-28T05:59:25.754Z,7.0,7.0,7.0,msa,7.0,,,,,,,,,,,,,,,,,,,,,
68d4670874bf80ef3de3834d,68d4670874bf80ef3de3834d,2026-01-28T05:59:25.722Z,,Survey,54.0,54_non-creaky.wav,,57.png,,,,,,,,,Apple AirPods,2026-01-28T05:59:25.722Z,7.0,7.0,7.0,both,6.0,,,,,,,,,,,,,,,,,,,,,
68d4239be163cb15b16606a6,68d4239be163cb15b16606a6,2026-01-28T05:59:27.493Z,,Survey,210.0,210_creaky.wav,,73.png,,,,,,,,,Wired Headset,2026-01-28T05:59:27.493Z,6.0,7.0,7.0,msa,5.0,,,,,,,,,,,,,,,,,,,,,
5c1d19c810677f0001d9d56c,5c1d19c810677f0001d9d56c,2026-01-28T05:59:34.401Z,,Survey,152.0,152_creaky.wav,,6.png,,,,,,,,,JBL Tune 720BT,2026-01-28T05:59:34.401Z,1.0,1.0,2.0,dialect,4.0,,,,,,,,,,,,,,,,,,,,,
68c03814183fb278ae8ac1c9,68c03814183fb278ae8ac1c9,2026-01-28T05:59:35.579Z,,Survey,211.0,211_creaky.wav,,74.png,,,,,,,,,Baseus Bowie E20,2026-01-28T05:59:35.579Z,7.0,7.0,7.0,both,7.0,,,,,,,,,,,,,,,,,,,,,
611b00c6f6cc82766cd07c16,611b00c6f6cc82766cd07c16,2026-01-28T05:59:39.716Z,,Survey,191.0,191_creaky.wav,,50.png,,,,,,,,,Wired Over-ear Headphones.,2026-01-28T05:59:39.716Z,7.0,7.0,7.0,msa,4.0,,,,,,,,,,,,,,,,,,,,,
5c1d19c810677f0001d9d56c,5c1d19c810677f0001d9d56c,2026-01-28T05:59:40.268Z,,Survey,147.0,147_creaky.wav,,3.png,,,,,,,,,JBL Tune 720BT,2026-01-28T05:59:40.268Z,6.0,7.0,7.0,both,7.0,,,,,,,,,,,,,,,,,,,,,
68d4670874bf80ef3de3834d,68d4670874bf80ef3de3834d,2026-01-28T05:59:45.356Z,,Survey,182.0,182_creaky.wav,,40.png,,,,,,,,,Apple AirPods,2026-01-28T05:59:45.356Z,7.0,7.0,7.0,msa,6.0,,,,,,,,,,,,,,,,,,,,,
5c1d19c810677f0001d9d56c,5c1d19c810677f0001d9d56c,2026-01-28T05:59:46.025Z,,Survey,189.0,189_creaky.wav,,47.png,,,,,,,,,JBL Tune 720BT,2026-01-28T05:59:46.025Z,6.0,7.0,6.0,both,6.0,,,,,,,,,,,,,,,,,,,,,
611b00c6f6cc82766cd07c16,611b00c6f6cc82766cd07c16,2026-01-28T05:59:53.051Z,,Survey,21.0,21_non-creaky.wav,,20.png,,,,,,,,,Wired Over-ear Headphones.,2026-01-28T05:59:53.051Z,1.0,,1.0,dialect,1.0,,,,,,,,,,,,,,,,,,,,,
5c1d19c810677f0001d9d56c,5c1d19c810677f0001d9d56c,2026-01-28T05:59:51.992Z,,Survey,59.0,59_non-creaky.wav,,64.png,,,,,,,,,JBL Tune 720BT,2026-01-28T05:59:51.992Z,6.0,7.0,7.0,both,6.0,,,,,,,,,,,,,,,,,,,,,
5c1d19c810677f0001d9d56c,5c1d19c810677f0001d9d56c,2026-01-28T05:59:57.509Z,,Survey,68.0,68_non-creaky.wav,,75.png,,,,,,,,,JBL Tune 720BT,2026-01-28T05:59:57.509Z,6.0,7.0,6.0,both,2.0,,,,,,,,,,,,,,,,,,,,,
68d4670874bf80ef3de3834d,68d4670874bf80ef3de3834d,2026-01-28T06:00:02.130Z,,Survey,276.0,276_creaky.wav,,164.png,,,,,,,,,Apple AirPods,2026-01-28T06:00:02.130Z,7.0,7.0,7.0,both,5.0,,,,,,,,,,,,,,,,,,,,,
611b00c6f6cc82766cd07c16,611b00c6f6cc82766cd07c16,2026-01-28T06:00:04.990Z,,Survey,202.0,202_creaky.wav,,63.png,,,,,,,,,Wired Over-ear Headphones.,2026-01-28T06:00:04.990Z,7.0,7.0,7.0,both,5.0,,,,,,,,,,,,,,,,,,,,,
5c1d19c810677f0001d9d56c,5c1d19c810677f0001d9d56c,2026-01-28T06:00:04.274Z,,Survey,128.0,128_non-creaky.wav,,159.png,,,,,,,,,JBL Tune 720BT,2026-01-28T06:00:04.274Z,6.0,7.0,7.0,both,6.0,,,,,,,,,,,,,,,,,,,,,
68d4239be163cb15b16606a6,68d4239be163cb15b16606a6,2026-01-28T06:00:08.580Z,,Survey,84.0,84_non-creaky.wav,,84.png,,,,,,,,,Wired Headset,2026-01-28T06:00:08.580Z,6.0,7.0,5.0,dialect,5.0,,,,,,,,,,,,,,,,,,,,,
5c1d19c810677f0001d9d56c,5c1d19c810677f0001d9d56c,2026-01-28T06:00:09.846Z,,Survey,117.0,117_non-creaky.wav,,146.png,,,,,,,,,JBL Tune 720BT,2026-01-28T06:00:09.846Z,6.0,7.0,6.0,both,5.0,,,,,,,,,,,,,,,,,,,,,
611b00c6f6cc82766cd07c16,611b00c6f6cc82766cd07c16,2026-01-28T06:00:19.449Z,,Survey,242.0,242_creaky.wav,,113.png,,,,,,,,,Wired Over-ear Headphones.,2026-01-28T06:00:19.449Z,7.0,7.0,7.0,msa,5.0,,,,,,,,,,,,,,,,,,,,,
68d4670874bf80ef3de3834d,68d4670874bf80ef3de3834d,2026-01-28T06:00:20.601Z,,Survey,5.0,5_non-creaky.wav,,4.png,,,,,,,,,Apple AirPods,2026-01-28T06:00:20.601Z,6.0,7.0,4.0,both,4.0,,,,,,,,,,,,,,,,,,,,,
5c1d19c810677f0001d9d56c,5c1d19c810677f0001d9d56c,2026-01-28T06:00:22.360Z,,Survey,130.0,130_non-creaky.wav,,162.png,,,,,,,,,JBL Tune 720BT,2026-01-28T06:00:22.360Z,6.0,7.0,6.0,both,4.0,,,,,,,,,,,,,,,,,,,,,
68c03814183fb278ae8ac1c9,68c03814183fb278ae8ac1c9,2026-01-28T06:00:21.068Z,,Survey,70.0,70_non-creaky.wav,,73.png,,,,,,,,,Baseus Bowie E20,2026-01-28T06:00:21.068Z,6.0,7.0,7.0,dialect,7.0,,,,,,,,,,,,,,,,,,,,,
68d40473576087257c6dcaf3,68d40473576087257c6dcaf3,2026-01-28T06:00:25.744Z,,Survey,25.0,25_non-creaky.wav,,25.png,,,,,,,,,Wired over-ear headphones,2026-01-28T06:00:25.744Z,7.0,7.0,2.0,both,7.0,,,,,,,,,,,,,,,,,,,,,
5c1d19c810677f0001d9d56c,5c1d19c810677f0001d9d56c,2026-01-28T06:00:29.080Z,,Survey,81.0,81_non-creaky.wav,,81.png,,,,,,,,,JBL Tune 720BT,2026-01-28T06:00:29.080Z,6.0,7.0,6.0,both,6.0,,,,,,,,,,,,,,,,,,,,,
5c1d19c810677f0001d9d56c,5c1d19c810677f0001d9d56c,2026-01-28T06:00:34.857Z,,Survey,114.0,114_non-creaky.wav,,142.png,,,,,,,,,JBL Tune 720BT,2026-01-28T06:00:34.857Z,6.0,7.0,5.0,both,6.0,,,,,,,,,,,,,,,,,,,,,
68d4670874bf80ef3de3834d,68d4670874bf80ef3de3834d,2026-01-28T06:00:40.785Z,,Survey,150.0,150_creaky.wav,,6.png,,,,,,,,,Apple AirPods,2026-01-28T06:00:40.785Z,5.0,6.0,5.0,msa,5.0,,,,,,,,,,,,,,,,,,,,,
5c1d19c810677f0001d9d56c,5c1d19c810677f0001d9d56c,2026-01-28T06:00:42.047Z,,Survey,92.0,92_non-creaky.wav,,101.png,,,,,,,,,JBL Tune 720BT,2026-01-28T06:00:42.047Z,6.0,7.0,6.0,both,1.0,,,,,,,,,,,,,,,,,,,,,
68c03814183fb278ae8ac1c9,68c03814183fb278ae8ac1c9,2026-01-28T06:00:39.440Z,,Survey,147.0,147_creaky.wav,,3.png,,,,,,,,,Baseus Bowie E20,2026-01-28T06:00:39.440Z,7.0,7.0,6.0,msa,7.0,,,,,,,,,,,,,,,,,,,,,
611b00c6f6cc82766cd07c16,611b00c6f6cc82766cd07c16,2026-01-28T06:00:43.770Z,,Survey,215.0,215_creaky.wav,,74.png,,,,,,,,,Wired Over-ear Headphones.,2026-01-28T06:00:43.770Z,7.0,7.0,6.0,dialect,5.0,,,,,,,,,,,,,,,,,,,,,
5c1d19c810677f0001d9d56c,5c1d19c810677f0001d9d56c,2026-01-28T06:00:48.023Z,,Survey,53.0,53_non-creaky.wav,,56.png,,,,,,,,,JBL Tune 720BT,2026-01-28T06:00:48.023Z,6.0,7.0,5.0,both,4.0,,,,,,,,,,,,,,,,,,,,,
611b00c6f6cc82766cd07c16,611b00c6f6cc82766cd07c16,2026-01-28T06:00:54.821Z,,Survey,20.0,20_non-creaky.wav,,20.png,,,,,,,,,Wired Over-ear Headphones.,2026-01-28T06:00:54.821Z,1.0,,1.0,dialect,1.0,,,,,,,,,,,,,,,,,,,,,
68d4670874bf80ef3de3834d,68d4670874bf80ef3de3834d,2026-01-28T06:00:55.228Z,,Survey,90.0,90_non-creaky.wav,,99.png,,,,,,,,,Apple AirPods,2026-01-28T06:00:55.228Z,7.0,7.0,7.0,both,6.0,,,,,,,,,,,,,,,,,,,,,
68c03814183fb278ae8ac1c9,68c03814183fb278ae8ac1c9,2026-01-28T06:00:54.184Z,,Survey,3.0,3_non-creaky.wav,,3.png,,,,,,,,,Baseus Bowie E20,2026-01-28T06:00:54.184Z,7.0,7.0,7.0,msa,7.0,,,,,,,,,,,,,,,,,,,,,
5c1d19c810677f0001d9d56c,5c1d19c810677f0001d9d56c,2026-01-28T06:01:00.423Z,,Survey,272.0,272_creaky.wav,,159.png,,,,,,,,,JBL Tune 720BT,2026-01-28T06:01:00.423Z,6.0,7.0,7.0,both,7.0,,,,,,,,,,,,,,,,,,,,,
611b00c6f6cc82766cd07c16,611b00c6f6cc82766cd07c16,2026-01-28T06:01:10.731Z,,Survey,176.0,176_creaky.wav,,32.png,,,,,,,,,Wired Over-ear Headphones.,2026-01-28T06:01:10.731Z,7.0,7.0,7.0,msa,2.0,,,,,,,,,,,,,,,,,,,,,
68d4670874bf80ef3de3834d,68d4670874bf80ef3de3834d,2026-01-28T06:01:10.437Z,,Survey,123.0,123_non-creaky.wav,,152.png,,,,,,,,,Apple AirPods,2026-01-28T06:01:10.437Z,7.0,7.0,6.0,both,6.0,,,,,,,,,,,,,,,,,,,,,
5c1d19c810677f0001d9d56c,5c1d19c810677f0001d9d56c,2026-01-28T06:01:12.485Z,,Survey,156.0,156_creaky.wav,,12.png,,,,,,,,,JBL Tune 720BT,2026-01-28T06:01:12.485Z,1.0,2.0,4.0,dialect,2.0,,,,,,,,,,,,,,,,,,,,,
68c03814183fb278ae8ac1c9,68c03814183fb278ae8ac1c9,2026-01-28T06:01:13.784Z,,Survey,191.0,191_creaky.wav,,50.png,,,,,,,,,Baseus Bowie E20,2026-01-28T06:01:13.784Z,7.0,7.0,7.0,both,7.0,,,,,,,,,,,,,,,,,,,,,
5c1d19c810677f0001d9d56c,5c1d19c810677f0001d9d56c,2026-01-28T06:01:18.013Z,,Survey,50.0,50_non-creaky.wav,,53.png,,,,,,,,,JBL Tune 720BT,2026-01-28T06:01:18.013Z,6.0,7.0,7.0,both,6.0,,,,,,,,,,,,,,,,,,,,,
68d4670874bf80ef3de3834d,68d4670874bf80ef3de3834d,2026-01-28T06:01:21.017Z,,Survey,205.0,205_creaky.wav,,67.png,,,,,,,,,Apple AirPods,2026-01-28T06:01:21.017Z,7.0,7.0,7.0,both,4.0,,,,,,,,,,,,,,,,,,,,,
5c1d19c810677f0001d9d56c,5c1d19c810677f0001d9d56c,2026-01-28T06:01:23.000Z,,Survey,225.0,225_creaky.wav,,81.png,,,,,,,,,JBL Tune 720BT,2026-01-28T06:01:23.000Z,6.0,7.0,7.0,both,7.0,,,,,,,,,,,,,,,,,,,,,
5c1d19c810677f0001d9d56c,5c1d19c810677f0001d9d56c,2026-01-28T06:01:28.780Z,,Survey,75.0,75_non-creaky.wav,,83.png,,,,,,,,,JBL Tune 720BT,2026-01-28T06:01:28.780Z,6.0,7.0,6.0,both,7.0,,,,,,,,,,,,,,,,,,,,,
611b00c6f6cc82766cd07c16,611b00c6f6cc82766cd07c16,2026-01-28T06:01:31.068Z,,Survey,120.0,120_non-creaky.wav,,149.png,,,,,,,,,Wired Over-ear Headphones.,2026-01-28T06:01:31.068Z,7.0,7.0,7.0,msa,6.0,,,,,,,,,,,,,,,,,,,,,
68d40473576087257c6dcaf3,68d40473576087257c6dcaf3,2026-01-28T06:01:32.192Z,,Survey,75.0,75_non-creaky.wav,,83.png,,,,,,,,,Wired over-ear headphones,2026-01-28T06:01:32.192Z,7.0,7.0,4.0,msa,7.0,,,,,,,,,,,,,,,,,,,,,
68d4670874bf80ef3de3834d,68d4670874bf80ef3de3834d,2026-01-28T06:01:32.734Z,,Survey,198.0,198_creaky.wav,,57.png,,,,,,,,,Apple AirPods,2026-01-28T06:01:32.734Z,7.0,7.0,7.0,both,4.0,,,,,,,,,,,,,,,,,,,,,
5c1d19c810677f0001d9d56c,5c1d19c810677f0001d9d56c,2026-01-28T06:01:39.444Z,,Survey,148.0,148_creaky.wav,,4.png,,,,,,,,,JBL Tune 720BT,2026-01-28T06:01:39.444Z,6.0,7.0,7.0,both,6.0,,,,,,,,,,,,,,,,,,,,,
691290f8a9d2ff4090233076,691290f8a9d2ff4090233076,2026-01-28T05:59:13.222Z,,Survey,75.0,75_non-creaky.wav,,83.png,,,,,,,,,Wireless Jabra Headphones,2026-01-28T05:59:13.222Z,7.0,7.0,7.0,msa,7.0,,,,,,,,,,,,,,,,,,,,,
68d4670874bf80ef3de3834d,68d4670874bf80ef3de3834d,2026-01-28T06:01:46.992Z,,Survey,11.0,11_non-creaky.wav,,9.png,,,,,,,,,Apple AirPods,2026-01-28T06:01:46.992Z,7.0,7.0,6.0,both,6.0,,,,,,,,,,,,,,,,,,,,,
5c1d19c810677f0001d9d56c,5c1d19c810677f0001d9d56c,2026-01-28T06:01:44.981Z,,Survey,104.0,104_non-creaky.wav,,121.png,,,,,,,,,JBL Tune 720BT,2026-01-28T06:01:44.981Z,6.0,7.0,7.0,both,7.0,,,,,,,,,,,,,,,,,,,,,
691290f8a9d2ff4090233076,691290f8a9d2ff4090233076,2026-01-28T06:01:52.676Z,,Survey,6.0,6_non-creaky.wav,,6.png,,,,,,,,,Wireless Jabra Headphones,2026-01-28T06:01:52.676Z,3.0,,4.0,msa,7.0,,,,,,,,,,,,,,,,,,,,,
611b00c6f6cc82766cd07c16,611b00c6f6cc82766cd07c16,2026-01-28T06:01:58.769Z,,Survey,18.0,18_non-creaky.wav,,18.png,,,,,,,,,Wired Over-ear Headphones.,2026-01-28T06:01:58.769Z,1.0,,1.0,dialect,1.0,,,,,,,,,,,,,,,,,,,,,
68c03814183fb278ae8ac1c9,68c03814183fb278ae8ac1c9,2026-01-28T06:01:56.516Z,,Survey,13.0,13_non-creaky.wav,,12.png,,,,,,,,,Baseus Bowie E20,2026-01-28T06:01:56.516Z,1.0,1.0,1.0,msa,6.0,,,,,,,,,,,,,,,,,,,,,
68d40473576087257c6dcaf3,68d40473576087257c6dcaf3,2026-01-28T06:01:59.614Z,,Survey,185.0,185_creaky.wav,,42.png,,,,,,,,,Wired over-ear headphones,2026-01-28T06:01:59.614Z,7.0,7.0,5.0,dialect,4.0,,,,,,,,,,,,,,,,,,,,,
5c1d19c810677f0001d9d56c,5c1d19c810677f0001d9d56c,2026-01-28T06:01:55.436Z,,Survey,12.0,12_non-creaky.wav,,12.png,,,,,,,,,JBL Tune 720BT,2026-01-28T06:01:55.436Z,1.0,1.0,2.0,dialect,3.0,,,,,,,,,,,,,,,,,,,,,
5c1d19c810677f0001d9d56c,5c1d19c810677f0001d9d56c,2026-01-28T06:02:02.744Z,,Survey,278.0,278_creaky.wav,,167.png,,,,,,,,,JBL Tune 720BT,2026-01-28T06:02:02.744Z,6.0,7.0,6.0,both,1.0,,,,,,,,,,,,,,,,,,,,,
611b00c6f6cc82766cd07c16,611b00c6f6cc82766cd07c16,2026-01-28T06:02:07.538Z,,Survey,10.0,10_non-creaky.wav,,10.png,,,,,,,,,Wired Over-ear Headphones.,2026-01-28T06:02:07.538Z,7.0,7.0,7.0,msa,6.0,,,,,,,,,,,,,,,,,,,,,
68d4670874bf80ef3de3834d,68d4670874bf80ef3de3834d,2026-01-28T06:02:08.309Z,,Survey,127.0,127_non-creaky.wav,,158.png,,,,,,,,,Apple AirPods,2026-01-28T06:02:08.309Z,7.0,7.0,7.0,both,7.0,,,,,,,,,,,,,,,,,,,,,
5c1d19c810677f0001d9d56c,5c1d19c810677f0001d9d56c,2026-01-28T06:02:11.274Z,,Survey,162.0,162_creaky.wav,,18.png,,,,,,,,,JBL Tune 720BT,2026-01-28T06:02:11.274Z,1.0,1.0,4.0,dialect,1.0,,,,,,,,,,,,,,,,,,,,,
611b00c6f6cc82766cd07c16,611b00c6f6cc82766cd07c16,2026-01-28T06:02:18.144Z,,Survey,49.0,49_non-creaky.wav,,52.png,,,,,,,,,Wired Over-ear Headphones.,2026-01-28T06:02:18.144Z,7.0,7.0,7.0,both,6.0,,,,,,,,,,,,,,,,,,,,,
5c1d19c810677f0001d9d56c,5c1d19c810677f0001d9d56c,2026-01-28T06:02:18.057Z,,Survey,58.0,58_non-creaky.wav,,63.png,,,,,,,,,JBL Tune 720BT,2026-01-28T06:02:18.057Z,7.0,7.0,7.0,both,6.0,,,,,,,,,,,,,,,,,,,,,
68d4670874bf80ef3de3834d,68d4670874bf80ef3de3834d,2026-01-28T06:02:21.509Z,,Survey,77.0,77_non-creaky.wav,,85.png,,,,,,,,,Apple AirPods,2026-01-28T06:02:21.509Z,7.0,7.0,7.0,both,7.0,,,,,,,,,,,,,,,,,,,,,
68c03814183fb278ae8ac1c9,68c03814183fb278ae8ac1c9,2026-01-28T06:02:22.723Z,,Survey,140.0,140_non-creaky.wav,,178.png,,,,,,,,,Baseus Bowie E20,2026-01-28T06:02:22.723Z,7.0,7.0,7.0,both,7.0,,,,,,,,,,,,,,,,,,,,,
5c1d19c810677f0001d9d56c,5c1d19c810677f0001d9d56c,2026-01-28T06:02:26.583Z,,Survey,15.0,15_non-creaky.wav,,14.png,,,,,,,,,JBL Tune 720BT,2026-01-28T06:02:26.583Z,5.0,7.0,6.0,both,2.0,,,,,,,,,,,,,,,,,,,,,
611b00c6f6cc82766cd07c16,611b00c6f6cc82766cd07c16,2026-01-28T06:02:30.980Z,,Survey,283.0,283_creaky.wav,,177.png,,,,,,,,,Wired Over-ear Headphones.,2026-01-28T06:02:30.980Z,7.0,7.0,7.0,dialect,3.0,,,,,,,,,,,,,,,,,,,,,
68d40473576087257c6dcaf3,68d40473576087257c6dcaf3,2026-01-28T06:02:34.527Z,,Survey,241.0,241_creaky.wav,,112.png,,,,,,,,,Wired over-ear headphones,2026-01-28T06:02:34.527Z,7.0,7.0,7.0,msa,5.0,,,,,,,,,,,,,,,,,,,,,
5c1d19c810677f0001d9d56c,5c1d19c810677f0001d9d56c,2026-01-28T06:02:37.585Z,,Survey,90.0,90_non-creaky.wav,,99.png,,,,,,,,,JBL Tune 720BT,2026-01-28T06:02:37.585Z,2.0,2.0,2.0,dialect,2.0,,,,,,,,,,,,,,,,,,,,,
5c1d19c810677f0001d9d56c,5c1d19c810677f0001d9d56c,2026-01-28T06:02:43.108Z,,Survey,1.0,1_non-creaky.wav,,1.png,,,,,,,,,JBL Tune 720BT,2026-01-28T06:02:43.108Z,6.0,7.0,7.0,both,5.0,,,,,,,,,,,,,,,,,,,,,
68c03814183fb278ae8ac1c9,68c03814183fb278ae8ac1c9,2026-01-28T06:02:44.248Z,,Survey,274.0,274_creaky.wav,,162.png,,,,,,,,,Baseus Bowie E20,2026-01-28T06:02:44.248Z,5.0,7.0,7.0,both,4.0,,,,,,,,,,,,,,,,,,,,,
611b00c6f6cc82766cd07c16,611b00c6f6cc82766cd07c16,2026-01-28T06:02:48.021Z,,Survey,123.0,123_non-creaky.wav,,152.png,,,,,,,,,Wired Over-ear Headphones.,2026-01-28T06:02:48.021Z,7.0,7.0,5.0,msa,6.0,,,,,,,,,,,,,,,,,,,,,
5c1d19c810677f0001d9d56c,5c1d19c810677f0001d9d56c,2026-01-28T06:02:48.432Z,,Survey,256.0,256_creaky.wav,,139.png,,,,,,,,,JBL Tune 720BT,2026-01-28T06:02:48.432Z,7.0,7.0,7.0,both,6.0,,,,,,,,,,,,,,,,,,,,,
5c1d19c810677f0001d9d56c,5c1d19c810677f0001d9d56c,2026-01-28T06:02:56.428Z,,Survey,190.0,190_creaky.wav,,48.png,,,,,,,,,JBL Tune 720BT,2026-01-28T06:02:56.428Z,6.0,7.0,6.0,both,5.0,,,,,,,,,,,,,,,,,,,,,
68c03814183fb278ae8ac1c9,68c03814183fb278ae8ac1c9,2026-01-28T06:02:57.427Z,,Survey,26.0,26_non-creaky.wav,,26.png,,,,,,,,,Baseus Bowie E20,2026-01-28T06:02:57.427Z,1.0,1.0,1.0,msa,6.0,,,,,,,,,,,,,,,,,,,,,
611b00c6f6cc82766cd07c16,611b00c6f6cc82766cd07c16,2026-01-28T06:03:01.252Z,,Survey,197.0,197_creaky.wav,,56.png,,,,,,,,,Wired Over-ear Headphones.,2026-01-28T06:03:01.252Z,7.0,7.0,7.0,msa,6.0,,,,,,,,,,,,,,,,,,,,,
5c1d19c810677f0001d9d56c,5c1d19c810677f0001d9d56c,2026-01-28T06:03:08.639Z,,Survey,32.0,32_non-creaky.wav,,32.png,,,,,,,,,JBL Tune 720BT,2026-01-28T06:03:08.639Z,2.0,2.0,2.0,dialect,3.0,,,,,,,,,,,,,,,,,,,,,
611b00c6f6cc82766cd07c16,611b00c6f6cc82766cd07c16,2026-01-28T06:03:15.923Z,,Survey,274.0,274_creaky.wav,,162.png,,,,,,,,,Wired Over-ear Headphones.,2026-01-28T06:03:15.923Z,7.0,7.0,7.0,msa,6.0,,,,,,,,,,,,,,,,,,,,,
5c1d19c810677f0001d9d56c,5c1d19c810677f0001d9d56c,2026-01-28T06:03:16.494Z,,Survey,212.0,212_creaky.wav,,75.png,,,,,,,,,JBL Tune 720BT,2026-01-28T06:03:16.494Z,7.0,7.0,7.0,both,2.0,,,,,,,,,,,,,,,,,,,,,
68c03814183fb278ae8ac1c9,68c03814183fb278ae8ac1c9,2026-01-28T06:03:16.143Z,,Survey,168.0,168_creaky.wav,,24.png,,,,,,,,,Baseus Bowie E20,2026-01-28T06:03:16.143Z,6.0,7.0,7.0,both,7.0,,,,,,,,,,,,,,,,,,,,,
