trial_id,recognize_zscore_mean,understand_zscore_mean,meaning_match_zscore_mean,natural_zscore_mean,Note,TargetWordAudioFile,TargetWordOriginalFile,TargetSegment,DistractorSegment,Pair,UniquePairIndex,Position,TargetWordImageFile,DistractorWordImageFile,TrialType,Condition,CarrierType,Target-Arabic,Distractor-Arabic,TargetDefinition,Distractor-Definition,TargetDisplay,DistractorDisplay,Target-Freq,Distractor-Freq,mean_accuracy,n_responses,mean_log_rt_zscore,mean_rt_ms,composite_score,trial_type
43.0,0.4277710415498004,0.2678703452806771,0.40978572957681303,0.315115038144335,,43_non-creaky.wav,ʔalb-b.wav,gs,k,gs-k,43,Initial,44.png,139.png,test,allophone,non-creaky,قَلب,كَلب,heart,dog,قَلب,كَلب,2704.0,21029.0,1.0,20.0,-0.15566518292892456,494.15,0.3551355386379064,Accurate-Fast
171.0,-1.2890619707426694,-1.41633551795567,-0.8738416091610479,-1.0772493675213188,,171_creaky.wav,jaʔuːn-c.wav,gs,k,gs-k,27,Medial,26.png,121.png,test,allophone,creaky,يَقون,يَكون,preserve;safeguard,be,يَقون,يَكون,4.0,254261.0,1.0,17.0,-0.0952223647363105,519.7647058823529,-1.1641221163451765,Accurate-Fast
165.0,-2.298624393965728,-2.547759802279512,-1.772707956725272,-0.9375589330426979,,165_creaky.wav,jaʔsɪb-c.wav,gs,k,gs-k,21,Medial,20.png,115.png,test,allophone,creaky,يَقسِب,يَكسِب,"to flow, to trickle down",to win a struggle or war,يَقسِب,يَكسِب,,,1.0,18.0,-0.08449952201510089,521.3888888888889,-1.8891627715033024,Accurate-Fast
183.0,0.26672685830844395,0.12852651236921445,0.18194392834761244,-1.1219135459138254,,183_creaky.wav,waʔiːl-c.wav,gs,k,gs-k,39,Medial,40.png,135.png,test,allophone,creaky,وَقيل,وَكيل,be_said,representative;agent,وَقيل,وَكيل,5767.0,3581.0,1.0,17.0,0.16945343827263512,693.7058823529412,-0.13617906172213864,Accurate-Slow
41.0,-0.010282901326795275,-0.0015797741961100966,-0.07121362857372145,-1.1750326716563535,,41_non-creaky.wav,ʔawaː-b.wav,gs,k,gs-k,41,Initial,42.png,137.png,test,allophone,non-creaky,قَوى,كَوى,power;forces,apertures;skylights,قَوى,كَوى,51772.0,3129.0,1.0,17.0,0.42374737790773914,772.1176470588235,-0.3145272439382451,Accurate-Slow
181.0,-0.22879370551111436,-0.31383486195288907,-0.19004268590414353,-1.262522996408753,,181_creaky.wav,waʔæːd-c.wav,gs,k,gs-k,37,Medial,36.png,131.png,test,allophone,creaky,وَقاد,وَكاد,lead;guide,almost;hardly;no_sooner,وَقاد,وَكاد,5898.0,7904.0,1.0,19.0,0.26939216374436326,922.3157894736842,-0.498798562444225,Accurate-Slow
15.0,0.280663374165869,0.22584601472007723,0.3803367892818823,0.047957082203972504,,15_non-creaky.wav,jaʔfɪl-b.wav,gs,k,gs-k,15,Medial,14.png,109.png,test,allophone,non-creaky,يَقفِل,يَكفِل,to lock,to guarantee,يَقفِل,يَكفِل,,,0.9375,16.0,-0.07655461944298918,520.5,0.23370081509295026,Ambiguous
35.0,0.33950644111944156,0.30989467584127695,0.46868361016667437,-0.5665062164588612,,35_non-creaky.wav,waʔarːar-b.wav,gs,k,gs-k,35,Medial,34.png,129.png,test,allophone,non-creaky,وَقَرَّر,وَكَرَّر,decide;resolve,repeat;reiterate,وَقَرَّر,وَكَرَّر,13138.0,12919.0,0.9411764705882353,17.0,0.47315433103251897,835.8823529411765,0.13789462766713295,Ambiguous
173.0,0.23575682306972154,0.30547106209805586,0.49193277355740905,-0.9250603152209266,,173_creaky.wav,ʔaːnuːn-c.wav,gs,k,gs-k,29,Initial,28.png,123.png,test,allophone,creaky,قانون,كانون,law;statutes;regulations,stove,قانون,كانون,92378.0,101878.0,0.9444444444444444,18.0,0.23963699420884244,683.1666666666666,0.027025085876064975,Ambiguous
226.0,0.3983495080730141,0.30989467584127695,0.46868361016667437,-0.03219030457813623,,226_creaky.wav,nafaʔ-c.wav,gs,t,gs-t,82,Final,82.png,177.png,test,allophone,creaky,نَفَق,نَفَت,tunnel;subway_shaft,deny;disavow;reject,نَفَق,نَفَت,6056.0,10423.0,1.0,19.0,-0.11078503939875813,485.2631578947368,0.2861843723757073,Accurate-Fast
71.0,0.4277710415498004,0.30989467584127695,0.5275814907565357,-0.4863588296767524,,71_non-creaky.wav,ʔælʕɑʔiːd-b.wav,gs,t,gs-t,71,Medial,74.png,169.png,test,allophone,non-creaky,العَقيد,العَتيد,colonel,prepared,العَقيد,العَتيد,12868.0,2069.0,1.0,17.0,-0.0024592848872857084,575.1176470588235,0.1947220946177151,Accurate-Fast
85.0,0.32866692878588877,0.30547106209805586,0.3369383509525108,-0.22201306274628857,,85_non-creaky.wav,ʕaʔaba-b.wav,gs,t,gs-t,85,Medial,85.png,180.png,test,allophone,non-creaky,عَقَبَة,عَتَبَة,obstacle;Aqaba(Jordan),step;stair;threshold,عَقَبَة,عَتَبَة,3346.0,7966.0,1.0,17.0,-0.4177244572447138,375.29411764705884,0.1872658197725417,Accurate-Fast
212.0,0.45719257502658667,0.30989467584127695,0.5275814907565357,-0.21920087373639002,,212_creaky.wav,ʔæːl-c.wav,gs,t,gs-t,68,Initial,75.png,165.png,test,allophone,creaky,قال,تال,said,following;subsequent,قال,تال,430162.0,1418.0,1.0,19.0,0.016547932832468658,518.7894736842105,0.26886696697200235,Accurate-Slow
225.0,0.4277710415498004,0.30989467584127695,0.5275814907565357,-0.21920087373639002,,225_creaky.wav,ʔasˤiːr-c.wav,gs,t,gs-t,81,Initial,81.png,176.png,test,allophone,creaky,قَصير,تَصير,short;small,become;begin_to,قَصير,تَصير,8833.0,3536.0,1.0,17.0,0.4124409079833836,846.0588235294117,0.26151158360280574,Accurate-Slow
146.0,0.33950644111944156,0.30989467584127695,0.46868361016667437,-0.753516785617115,,146_creaky.wav,fæːʔa-c.wav,gs,t,gs-t,2,Medial,1.png,96.png,test,allophone,creaky,فاقَ,فاتَ,to exceed or go beyond,to pass by in time,فاقَ,فاتَ,,,1.0,18.0,0.3887357492275283,809.3333333333334,0.09114198537756951,Accurate-Slow
213.0,0.33950644111944156,0.22584601472007723,0.46868361016667437,-0.3527798517065712,,213_creaky.wav,ʔaʔwa-c.wav,gs,t,gs-t,69,Medial,72.png,167.png,test,allophone,creaky,أَقوى,أَتوا,stronger/strongest;more/most_powerful,arrive;come;reach,أَقوى,أَتوا,14518.0,2757.0,0.9473684210526315,19.0,0.22280715103169013,734.7894736842105,0.17031405357490548,Ambiguous
224.0,0.11187668211483195,0.11378113322514433,0.21294281286859215,-0.5313538538351293,,224_creaky.wav,jafuːʔ-c.wav,gs,t,gs-t,80,Final,80.png,175.png,test,allophone,creaky,يَفوق,يَفوت,surpass;excel,expire;go_by,يَفوق,يَفوت,10956.0,1365.0,0.9375,16.0,0.08068557612664459,535.875,-0.023188306406640227,Ambiguous
161.0,-0.012003458840057631,0.06708743260225564,0.2439416973895718,-0.8688165350229555,,161_creaky.wav,jʊʔarːɪf-c.wav,gs,t,gs-t,17,Medial,16.png,112.png,test,allophone,creaky,يُقرِّف,يُترِّف,to arouse digust,to spoil in luxury,يُقرِّف,يُترِّف,,,0.9285714285714286,14.0,-0.1638824354502984,525.4285714285714,-0.14244771596779643,Ambiguous
42.0,0.4277710415498004,0.30989467584127695,0.5275814907565357,0.742567767648915,,42_non-creaky.wav,qalb-b.wav,q,k,q-k,42,Initial,44.png,139.png,test,phoneme,non-creaky,قَلب,كَلب,heart,dog,قَلب,كَلب,2704.0,21029.0,1.0,16.0,-0.020885934608540394,557.5625,0.501953743949132,Accurate-Fast
12.0,-0.6314041636145056,-0.8200928792326297,-0.23809095691166196,-0.13905348695428127,,12_non-creaky.wav,jaqʃɪf-b.wav,q,k,q-k,12,Medial,12.png,107.png,test,phoneme,non-creaky,يَقشِف,يَكشِف,to live in squalor or misery,"to expose, uncover",يَقشِف,يَكشِف,,,1.0,18.0,-0.24759056811004973,552.6111111111111,-0.4571603716782697,Accurate-Fast
9.0,-1.0138840988127271,-0.5666127901369482,-0.7976208225153449,0.07467287779800875,,9_non-creaky.wav,jaqsɪr-b.wav,q,k,q-k,9,Medial,9.png,104.png,test,phoneme,non-creaky,يَقسِر,يَكسِر,to force or coerce,to break,يَقسِر,يَكسِر,2.0,1056.0,1.0,19.0,-0.35778575875297874,497.05263157894734,-0.5758612084167529,Accurate-Fast
34.0,0.39060699926333353,0.2612349246658455,0.21294281286859215,0.3685466293324075,,34_non-creaky.wav,waqarːar-b.wav,q,k,q-k,34,Medial,34.png,129.png,test,phoneme,non-creaky,وَقَرَّر,وَكَرَّر,decide;resolve,repeat;reiterate,وَقَرَّر,وَكَرَّر,13138.0,12919.0,1.0,16.0,0.5498737752636145,860.0,0.3083328415325447,Accurate-Slow
180.0,-0.0723950275555663,-0.02629996864352176,0.23309208780722895,-0.03219030457813624,,180_creaky.wav,waqæːd-c.wav,q,k,q-k,36,Medial,36.png,131.png,test,phoneme,creaky,وَقاد,وَكاد,lead;guide,almost;hardly;no_sooner,وَقاد,وَكاد,5898.0,7904.0,1.0,17.0,0.1807018106860573,769.9411764705883,0.025551696757501165,Accurate-Slow
184.0,0.10413417330515136,-0.026299968643521764,0.1447452669224369,-0.86037996799326,,184_creaky.wav,qawaː-c.wav,q,k,q-k,40,Initial,42.png,137.png,test,phoneme,creaky,قَوى,كَوى,power;forces,apertures;skylights,قَوى,كَوى,51772.0,3129.0,1.0,18.0,0.2437903034249864,669.5,-0.15945012410229836,Accurate-Slow
172.0,0.4277710415498004,0.2678703452806771,0.49813255046160504,0.23496765136222625,,172_creaky.wav,qaːnuːn-c.wav,q,k,q-k,28,Initial,28.png,123.png,test,phoneme,creaky,قانون,كانون,law;statutes;regulations,stove,قانون,كانون,92378.0,101878.0,0.8888888888888888,18.0,0.28883916409314014,929.2777777777778,0.3571853971635772,Ambiguous
14.0,0.33950644111944156,0.09977302303827772,0.43923466987174364,0.5288414028966251,,14_non-creaky.wav,jaqfɪl-b.wav,q,k,q-k,14,Medial,14.png,109.png,test,phoneme,non-creaky,يَقفِل,يَكفِل,to lock,to guarantee,يَقفِل,يَكفِل,,,0.9473684210526315,19.0,0.07911642742187536,669.0526315789474,0.351838884231522,Ambiguous
38.0,0.25124184068908273,0.14179735359887755,0.17419420721736756,0.23496765136222625,,38_non-creaky.wav,waqiːl-b.wav,q,k,q-k,38,Medial,40.png,135.png,test,phoneme,non-creaky,وَقيل,وَكيل,be_said,representative;agent,وَقيل,وَكيل,5767.0,3581.0,0.8888888888888888,18.0,-0.33264717837453806,441.3333333333333,0.2005502632168885,Ambiguous
74.0,0.4215770345020559,0.34970719953026624,0.49193277355740905,0.7341312006192193,,74_non-creaky.wav,nafaq-b.wav,q,t,q-t,74,Final,82.png,177.png,test,phoneme,non-creaky,نَفَق,نَفَت,tunnel;subway_shaft,deny;disavow;reject,نَفَق,نَفَت,6056.0,10423.0,1.0,19.0,-0.02793124029824424,487.10526315789474,0.4993370520522376,Accurate-Fast
67.0,0.41469480444900647,0.3472496363395879,0.5177651773248921,0.665388802599477,,67_non-creaky.wav,ʔælʕɑqiːd-b.wav,q,t,q-t,67,Medial,74.png,169.png,test,phoneme,non-creaky,العَقيد,العَتيد,colonel,prepared,العَقيد,العَتيد,12868.0,2069.0,1.0,19.0,-0.05881973361541048,536.3684210526316,0.4862746051782409,Accurate-Fast
77.0,0.33950644111944156,0.30989467584127695,0.49813255046160504,0.7158519720548787,,77_non-creaky.wav,ʕaqaba-b.wav,q,t,q-t,77,Medial,85.png,180.png,test,phoneme,non-creaky,عَقَبَة,عَتَبَة,obstacle;Aqaba(Jordan),step;stair;threshold,عَقَبَة,عَتَبَة,3346.0,7966.0,1.0,19.0,-0.05088692573748597,571.1052631578947,0.4658464098693006,Accurate-Fast
66.0,0.4525470697407783,0.30547106209805586,0.49193277355740905,0.5653998600253062,,66_non-creaky.wav,faqɾa-b.wav,q,t,q-t,66,Medial,73.png,168.png,test,phoneme,non-creaky,فَقرة,فَترة,paragraph;clause,phase;time_period;interval,فَقرة,فَترة,13023.0,109530.0,1.0,17.0,0.2166634930255541,662.6470588235294,0.4538376913553873,Accurate-Slow
65.0,0.3983495080730141,0.1838216841594774,0.23309208780722895,0.5822729940846976,,65_non-creaky.wav,ʔaqwa-b.wav,q,t,q-t,65,Medial,72.png,167.png,test,phoneme,non-creaky,أَقوى,أَتوا,stronger/strongest;more/most_powerful,arrive;come;reach,أَقوى,أَتوا,14518.0,2757.0,1.0,17.0,0.36345917129632316,685.4705882352941,0.3493840685311045,Accurate-Slow
78.0,0.10413417330515136,0.17276264980142483,0.29198996839709024,0.23496765136222625,,78_non-creaky.wav,ʔasːabq-b.wav,q,t,q-t,78,Final,86.png,181.png,test,phoneme,non-creaky,السَّبْق,السَّبْت,precedence;antecedence,Saturday,السَّبْق,السَّبْت,2697.0,222180.0,1.0,18.0,0.14359966685249234,626.2777777777778,0.20096361071647317,Accurate-Slow
219.0,0.32866692878588877,0.12852651236921447,0.05794839026369383,-0.0532817221523754,,219_creaky.wav,ʔælfæːʔɪqa-c.wav,q,t,q-t,75,Medial,83.png,178.png,test,phoneme,creaky,الفائِقة,الفائِتة,boundless;exceeding,past;expired;elapsed;gone_by,الفائِقة,الفائِتة,5743.0,1647.0,1.0,17.0,0.3607413389369319,704.6470588235294,0.11546502731660542,Accurate-Slow
217.0,0.4277710415498004,0.30989467584127695,0.5275814907565357,0.28839924255029875,,217_creaky.wav,qasˤiːr-c.wav,q,t,q-t,73,Initial,81.png,176.png,test,phoneme,creaky,قَصير,تَصير,short;small,become;begin_to,قَصير,تَصير,8833.0,3536.0,0.9375,16.0,-0.14731069737651326,525.875,0.38841161267447794,Ambiguous
216.0,0.31662302619305227,0.06708743260225564,0.38688099823631134,0.27949397735228665,,216_creaky.wav,jafuːq-c.wav,q,t,q-t,72,Final,80.png,175.png,test,phoneme,creaky,يَفوق,يَفوت,surpass;excel,expire;go_by,يَفوق,يَفوت,10956.0,1365.0,0.9411764705882353,17.0,-0.024208576826346865,585.4705882352941,0.2625213585959765,Ambiguous
63.0,0.4525470697407783,0.30547106209805586,0.5539305425993684,0.5935217501242916,,63_non-creaky.wav,ʔælmʊlæːʔɪm-b.wav,ʔ,k,ʔ-k,63,Medial,69.png,164.png,test,phoneme,non-creaky,المُلائِم,المُلاكِم,suitable;appropriate,boxer;pugilist,المُلائِم,المُلاكِم,5061.0,1778.0,1.0,18.0,-0.11666527215546776,516.2777777777778,0.47636760614062357,Accurate-Fast
59.0,0.3100849076426553,0.22584601472007723,0.46868361016667437,0.742567767648915,,59_non-creaky.wav,ʔasmæːʔ-b.wav,ʔ,k,ʔ-k,59,Final,64.png,159.png,test,phoneme,non-creaky,أَسماء,أَسماك,names,fish,أَسماء,أَسماك,11967.0,5494.0,1.0,18.0,-0.16034273849969313,449.3888888888889,0.43679557504458044,Accurate-Fast
188.0,0.4835171049795007,0.34970719953026624,0.5229316580783888,0.31230284913443646,,188_creaky.wav,ʔakuːn-c.wav,ʔ,k,ʔ-k,44,Initial,46.png,141.png,test,phoneme,creaky,أكون,تَكون,be,be,أكون,تَكون,100374.0,5576.0,1.0,17.0,-0.17445702831278737,481.3529411764706,0.417114702930648,Accurate-Fast
57.0,0.29769689354716633,0.34970719953026624,0.5539305425993684,0.7341312006192193,,57_non-creaky.wav,ʔam-b.wav,ʔ,k,ʔ-k,57,Initial,62.png,157.png,test,phoneme,non-creaky,أَمْ,كَمْ,or,how,أَمْ,كَمْ,51870.0,34974.0,1.0,19.0,0.3164090278340317,697.2631578947369,0.48386645907400505,Accurate-Slow
205.0,0.36892797459622784,0.30989467584127695,0.5275814907565357,0.101388673392045,,205_creaky.wav,ʔærːæːʔɪd-c.wav,ʔ,k,ʔ-k,61,Medial,67.png,162.png,test,phoneme,creaky,الرّائِد,الرّاكِد,leader;explorer;pioneer,stagnant;sluggish;tranquil,الرّائِد,الرّاكِد,8609.0,256.0,1.0,18.0,0.26294301900298395,710.0555555555555,0.3269482036465214,Accurate-Slow
202.0,0.4215770345020559,0.34970719953026624,0.5539305425993684,-0.025159832053389838,,202_creaky.wav,taʔliːf-c.wav,ʔ,k,ʔ-k,58,Medial,63.png,158.png,test,phoneme,creaky,تَأليف,تَكليف,authoring;composing;constituting,charging;commissioning,تَأليف,تَكليف,15041.0,3958.0,1.0,17.0,0.410844383000301,817.9411764705883,0.3250137361445751,Accurate-Slow
206.0,0.35963696402461115,0.34970719953026624,0.46093388903642946,0.08732772834255224,,206_creaky.wav,ræːʔɪʕa-c.wav,ʔ,k,ʔ-k,62,Medial,68.png,163.png,test,phoneme,creaky,رائِعة,راكِعة,splendid;marvelous;magnificent,bowing;kneeling;prostrate,رائِعة,راكِعة,6788.0,23.0,1.0,19.0,0.0804937392872892,665.0526315789474,0.31440144523346475,Accurate-Slow
10.0,0.22182030721229645,0.1727626498014248,-0.4736824792711074,0.5288414028966251,,10_non-creaky.wav,jaʔsɪr2-b.wav,ʔ,k,ʔ-k,10,Medial,10.png,104.png,test,phoneme,non-creaky,يَأسِر,يَكسِر,to bind,to break,يَأسِر,يَكسِر,,,1.0,19.0,0.15059518578394224,612.9473684210526,0.11243547015980973,Accurate-Slow
200.0,0.280663374165869,0.14179735359887755,0.3803367892818823,-0.13905348695428124,,200_creaky.wav,ʔɪntɪhæːʔ-c.wav,ʔ,k,ʔ-k,56,Final,61.png,156.png,test,phoneme,creaky,اِنْتِهاء,اِنْتِهاك,finishing;completion;conclusion,exhaustion,اِنْتِهاء,اِنْتِهاك,59925.0,6516.0,0.8888888888888888,18.0,0.8868865709221735,1013.8888888888889,0.1659360075230869,Ambiguous
45.0,0.4525470697407783,0.3939433369624766,0.49193277355740905,0.7060093105202337,,45_non-creaky.wav,ʔʊriːd-b.wav,ʔ,t,ʔ-t,45,Initial,47.png,142.png,test,phoneme,non-creaky,أُريد,تُريد,want;desire;intend,want;desire;intend,أُريد,تُريد,59771.0,17337.0,1.0,18.0,-0.025901597540809056,541.6666666666666,0.5111081226952244,Accurate-Fast
3.0,0.39060699926333353,0.30547106209805586,0.46093388903642946,0.6778874204212483,,3_non-creaky.wav,jʊʔaʒɪr-b.wav,ʔ,t,ʔ-t,3,Medial,3.png,98.png,test,phoneme,non-creaky,يُؤَجِر,يُتَجِر,to rent out,to trade,يُؤَجِر,يُتَجِر,,,1.0,17.0,-0.2663130879562568,441.88235294117646,0.45872484270476677,Accurate-Fast
52.0,0.280663374165869,0.1838216841594774,0.26254102810215957,0.6357045852727701,,52_non-creaky.wav,ʔʊqiːm-b.wav,ʔ,t,ʔ-t,52,Initial,55.png,150.png,test,phoneme,non-creaky,أُقيم,تُقيم,take_place;be_installed;be_established,install;establish;erect,أُقيم,تُقيم,18543.0,13107.0,1.0,19.0,-0.32868763210573176,421.6842105263158,0.340682667925069,Accurate-Fast
47.0,0.4277710415498004,0.30989467584127695,0.5570304310514664,0.7158519720548787,,47_non-creaky.wav,ʔarfʊdˤ-b.wav,ʔ,t,ʔ-t,47,Initial,50.png,145.png,test,phoneme,non-creaky,أرفُض,تَرفُض,reject;refuse,reject;refuse,أرفُض,تَرفُض,1387.0,26804.0,1.0,19.0,0.08392962085233609,597.2105263157895,0.5026370301243556,Accurate-Slow
199.0,0.20478678783099913,0.12852651236921445,0.46093388903642946,0.0592058382435667,,199_creaky.wav,ʔaɾa-c.wav,ʔ,t,ʔ-t,55,Initial,60.png,155.png,test,phoneme,creaky,أرى,تَرى,see;think;believe,see;think;believe,أرى,تَرى,7666.0,38891.0,1.0,18.0,0.15331583722640885,638.6111111111111,0.21336325687005242,Accurate-Slow
53.0,0.280663374165869,0.09977302303827774,0.14474526692243686,0.23496765136222625,,53_non-creaky.wav,ʔablaʁ-b.wav,ʔ,t,ʔ-t,53,Initial,56.png,151.png,test,phoneme,non-creaky,أبلَغ,تَبلَغ,report;inform;notify,reach;attain,أبلَغ,تَبلَغ,17341.0,47052.0,1.0,18.0,0.1398283097288916,629.0,0.19003732887220248,Accurate-Slow
49.0,0.36892797459622784,0.14179735359887755,0.3803367892818823,0.6624203808668063,,49_non-creaky.wav,ʔamæːm-b.wav,ʔ,t,ʔ-t,49,Initial,52.png,147.png,test,phoneme,non-creaky,أمام,تَمام,front;forward,exact;complete,أمام,تَمام,431358.0,2310.0,0.9411764705882353,17.0,0.18288749995722148,633.0,0.3883706245859485,Ambiguous
48.0,0.28801875753506556,0.18382168415947742,0.3582500840606843,0.63570458527277,,48_non-creaky.wav,ʔatˤlʊb-b.wav,ʔ,t,ʔ-t,48,Initial,51.png,146.png,test,phoneme,non-creaky,أطلُب,تَطلُب,request,request,أطلُب,تَطلُب,3103.0,19843.0,0.875,16.0,-0.28847513205270336,442.625,0.36644877775699936,Ambiguous
195.0,0.19239877373551018,0.2678703452806771,0.17419420721736756,-0.1390534869542812,,195_creaky.wav,ʔʊdˤɑf-c.wav,ʔ,t,ʔ-t,51,Initial,54.png,149.png,test,phoneme,creaky,أُضاف,تُضاف,add,be_added,أُضاف,تُضاف,31214.0,4876.0,0.9285714285714286,14.0,0.01045613491833002,679.7857142857143,0.1238524598198184,Ambiguous
